acc_x[mg],acc_y[mg],acc_z[mg]
2.928,-27.816,1003.328
0.976,-23.424,994.056
0.0,-22.936,990.64
-4.392,-35.624,1005.768
-3.416,-55.632,1004.792
-0.976,-56.608,1009.672
-6.344,-24.4,1011.136
-5.856,-14.64,1013.088
-10.248,-42.456,1013.576
-7.808,-60.024,1001.376
-3.416,-49.776,1004.792
5.856,-36.6,1001.376
6.832,-28.792,992.592
-6.344,-19.52,1001.376
-7.32,-32.696,1005.28
-5.856,-52.216,1008.208
-10.736,-51.728,1005.768
-3.416,-45.872,998.448
-5.368,-40.016,1005.768
2.44,-28.304,1001.376
-10.736,-38.552,1005.768
-17.568,-46.848,1007.72
-9.76,-47.336,1006.256
-0.976,-43.92,1007.232
-1.952,-32.208,1003.816
-9.272,-26.352,1001.864
-7.808,-36.112,1012.112
0.0,-42.456,1009.672
-8.296,-39.04,1007.232
-14.64,-27.816,1013.576
-8.784,-35.136,1007.232
-4.88,-47.336,1006.744
-11.712,-51.24,1017.968
-0.976,-33.672,996.008
-4.88,-35.624,998.936
-4.88,-41.48,1003.816
-5.856,-40.016,1005.28
-13.664,-39.04,1002.84
-9.272,-32.696,1000.888
-6.344,-30.256,998.936
-9.272,-28.304,996.984
-10.248,-29.768,1003.328
-13.176,-45.872,1010.648
-12.2,-46.36,1001.864
-3.904,-23.424,997.472
-1.952,-22.936,1004.792
-9.76,-36.112,1012.112
-6.832,-40.992,1014.552
-3.904,-28.304,1006.256
1.952,-25.864,1003.816
-8.784,-25.864,1013.088
-13.176,-37.576,1000.888
-11.712,-55.632,1016.504
-6.832,-54.168,1004.792
-5.368,-30.744,1007.232
-5.368,-17.08,1002.352
-9.272,-37.576,1009.184
-8.784,-51.24,999.424
-4.88,-39.04,997.96
-4.392,-27.328,996.984
0.488,-26.84,996.008
-8.296,-29.768,993.08
-8.296,-30.256,1007.232
-14.64,-29.28,1011.136
-6.832,-37.088,1016.992
-4.88,-43.92,1013.576
-5.368,-37.576,1009.184
-11.224,-20.008,1018.456
-12.688,-13.176,1021.384
-10.736,-36.112,1023.824
-5.368,-53.68,1012.6
-12.2,-40.016,1003.816
-15.128,-25.864,1012.6
-3.416,-28.792,1012.6
0.976,-30.744,1006.744
-1.952,-27.328,985.76
-11.224,-26.84,981.856
-6.344,-38.064,980.88
3.416,-38.064,965.264
-7.32,-16.592,969.168
-4.88,-9.76,963.312
-2.44,-26.84,934.52
-2.928,-26.352,939.4
-1.464,-30.256,897.432
21.472,-34.16,846.192
48.312,-20.496,793.976
54.168,0.488,691.496
37.576,-6.832,586.088
42.456,-43.432,510.448
61.0,-25.376,415.288
33.184,-87.84,444.568
-55.632,-263.52,519.72
-203.496,-441.152,610.488
-410.408,-516.304,654.408
-631.472,-439.688,719.312
-813.496,-258.152,835.944
-908.168,-4.392,1029.192
-919.392,163.968,1189.744
-941.84,81.008,1333.704
-965.752,-152.744,1410.32
-960.872,-253.76,1439.6
-931.104,-238.632,1412.272
-892.552,-147.376,1383.48
-795.44,-41.48,1303.448
-702.232,29.768,1213.656
-667.096,-12.688,1141.432
-668.56,-107.36,1065.792
-673.928,-170.8,974.048
-642.696,-174.216,909.144
-584.624,-164.456,861.32
-518.744,-147.864,915.0
-455.792,-116.632,915.0
-435.784,-102.48,851.072
-425.048,-130.784,797.392
-387.472,-170.312,809.104
-335.256,-194.224,865.712
-290.36,-183.976,896.944
-286.456,-167.872,898.408
-282.552,-124.928,888.16
-258.152,-94.184,846.192
-203.496,-69.296,874.984
-152.256,-78.08,908.656
-144.936,-91.256,937.448
-150.304,-102.968,908.168
-140.544,-113.704,889.624
-109.312,-92.72,891.576
-74.664,-59.536,915.488
-44.408,-24.888,931.104
-9.76,-14.152,905.728
-7.32,-30.744,899.872
-21.472,-59.536,921.344
-37.088,-51.24,938.912
-18.544,-18.544,967.216
-1.952,-13.176,973.56
9.272,-29.28,971.608
0.0,-43.92,975.024
-14.64,-40.992,967.704
-4.88,-5.856,948.672
16.592,8.296,951.112
40.016,-5.368,958.92
46.36,-13.176,979.904
45.384,-31.232,972.584
35.136,-38.064,951.112
53.192,3.904,921.832
68.32,29.768,947.208
67.832,34.648,968.192
43.432,20.984,959.896
41.48,22.448,955.504
33.672,0.0,974.048
34.16,-0.488,990.152
32.208,22.936,1024.8
31.232,34.648,1017.48
45.872,16.592,1009.184
39.528,1.464,1003.328
30.256,-6.344,1008.696
17.568,-7.808,1009.184
26.84,-2.928,1017.48
40.016,9.272,1004.304
31.232,-3.904,998.448
16.592,-23.424,1011.136
18.544,-10.736,1007.72
28.304,7.808,998.936
34.16,12.688,1006.744
21.96,-3.904,1005.768
17.568,-8.296,1001.864
21.472,-5.368,1001.864
17.08,7.808,1000.888
27.328,17.568,1015.04
22.448,8.784,1005.28
10.736,10.736,1009.184
5.856,11.712,1014.552
19.032,9.76,1008.208
18.544,6.344,1014.064
6.344,3.416,1019.432
0.976,0.976,1010.16
13.664,9.272,998.448
18.544,11.712,1005.28
10.736,-8.296,1016.992
1.952,-4.392,1002.84
7.808,21.472,1006.744
11.712,21.472,1005.768
10.736,13.176,1005.768
10.736,0.976,1002.84
9.272,-20.496,1013.088
13.664,-14.64,1011.136
14.152,18.056,1012.6
4.88,22.448,1007.72
5.856,-6.344,1003.816
9.272,-10.248,1010.648
19.032,0.0,1015.04
15.128,-6.832,998.448
8.296,-2.44,1019.92
12.2,10.736,1016.016
18.056,22.448,1002.84
20.496,0.976,997.96
11.712,-13.176,997.96
8.784,-19.032,996.496
17.08,-20.008,990.64
22.448,9.76,987.224
21.472,30.744,981.856
14.64,9.272,965.264
20.984,-13.176,900.36
31.232,-12.2,834.968
56.12,-14.152,711.016
84.424,-26.352,581.696
91.256,-28.304,475.8
97.6,30.256,339.16
88.328,43.92,270.84
8.784,-59.048,208.864
-164.944,-233.752,311.344
-442.128,-384.544,494.344
-713.944,-421.632,685.64
-862.296,-285.48,873.032
-902.312,-136.152,1128.256
-952.088,-85.4,1298.568
-984.296,-130.784,1376.648
-1009.672,-187.88,1437.16
-1026.264,-227.896,1521.096
-1010.16,-220.576,1543.056
-900.36,-156.648,1500.112
-798.368,-87.84,1396.656
-782.264,-67.344,1285.392
-772.504,-77.104,1171.2
-729.072,-88.328,1068.232
-662.704,-106.384,1010.648
-621.224,-130.784,1001.376
-592.92,-150.792,959.408
-553.88,-165.432,860.344
-479.704,-195.2,771.04
-397.232,-217.648,787.144
-320.616,-197.64,845.216
-299.632,-160.552,906.704
-309.88,-162.016,873.52
-312.32,-164.456,820.816
-273.28,-148.352,794.952
-203.496,-122.0,847.168
-156.648,-101.504,904.264
-126.392,-88.816,911.584
-128.832,-83.448,855.464
-140.544,-97.112,818.376
-102.968,-89.792,839.36
-39.04,-59.048,872.544
-16.592,-59.536,916.464
-15.128,-78.568,930.128
-32.208,-122.488,889.136
-30.256,-99.552,871.568
-13.176,-47.336,913.048
2.44,-29.768,981.856
11.712,-54.168,990.64
3.416,-72.712,956.48
-1.464,-85.4,945.256
4.392,-66.368,964.288
4.88,-32.696,998.936
5.368,-3.416,998.448
22.936,-8.784,987.712
28.792,-26.84,949.16
21.96,-35.136,933.544
13.664,-38.064,964.776
35.136,16.592,963.8
41.48,65.392,961.36
49.288,81.008,953.064
37.576,13.664,957.456
24.888,-55.144,980.88
19.032,-68.808,996.496
18.056,-15.128,991.616
27.328,23.912,995.032
37.088,10.248,1009.184
24.4,-19.032,1004.304
17.568,-20.008,1008.696
17.08,-10.736,1001.376
22.936,-0.488,998.448
28.792,18.544,992.104
25.376,20.008,1011.624
22.936,3.904,1034.072
24.888,-6.344,1019.432
20.008,0.0,1010.648
26.84,-8.784,994.544
22.448,-23.424,1012.6
18.544,-19.52,1022.36
12.688,-7.32,1016.504
23.912,-9.272,1005.28
25.864,-11.712,998.448
19.032,-23.424,1004.792
12.688,-19.032,1007.72
9.272,-2.928,998.448
12.2,5.368,1017.968
14.152,-1.952,1000.888
18.544,-23.912,1004.304
7.808,-16.104,1015.528
0.488,7.808,1001.864
10.248,-4.392,1014.064
20.984,-20.008,998.936
20.008,-11.224,996.496
14.64,-17.08,1002.84
14.152,-25.376,1007.232
17.08,-25.376,1012.112
19.52,0.976,1009.672
19.52,9.76,1011.136
3.904,-7.808,1018.944
0.0,-25.376,1017.968
7.32,0.488,1010.648
16.592,20.008,1007.232
13.176,-11.712,1015.528
5.856,-33.184,1010.16
9.272,-18.544,1003.328
22.936,9.76,997.96
15.616,11.224,997.96
11.712,-0.976,1002.352
1.952,-17.568,1006.256
3.904,-25.376,1011.136
7.32,-8.784,1006.744
15.616,2.44,1005.28
18.544,-6.344,996.496
11.224,-20.984,1008.208
1.464,-20.984,1016.504
5.368,-9.272,1011.624
20.008,-7.32,1001.864
25.376,-11.224,1001.864
13.664,-11.224,999.424
9.272,11.224,995.032
11.712,22.936,980.88
9.272,-2.928,976.976
7.32,-25.864,946.232
17.08,-12.688,883.28
42.456,-2.44,792.024
54.656,-40.992,643.184
16.104,-59.048,597.312
20.496,8.296,468.968
85.4,111.264,291.336
112.728,141.52,197.64
25.864,78.08,124.44
-177.632,-98.088,211.304
-435.296,-328.424,479.216
-707.112,-495.32,676.856
-859.368,-453.352,821.792
-955.504,-193.736,939.888
-1129.72,41.48,1234.152
-1350.296,94.672,1624.552
-1343.464,-76.128,1832.928
-1199.504,-278.648,1778.272
-1093.12,-314.272,1657.736
-1020.408,-177.144,1501.576
-957.944,-35.136,1357.616
-873.52,2.44,1209.264
-783.728,-43.92,1099.464
-714.432,-129.808,992.592
-646.112,-206.912,885.72
-574.376,-210.816,846.68
-520.208,-164.944,755.912
-467.504,-130.784,671.0
-394.792,-108.336,712.48
-327.448,-84.912,812.52
-318.176,-64.904,843.264
-312.808,-69.784,767.624
-305.0,-91.744,739.32
-253.76,-111.752,769.576
-219.6,-122.488,861.32
-200.08,-116.144,898.408
-175.68,-56.12,897.432
-132.736,23.424,851.072
-120.048,15.616,829.112
-133.712,-68.808,889.624
-125.904,-131.76,932.08
-96.624,-100.528,957.456
-44.896,-41.968,919.88
-22.936,-20.008,877.424
-45.872,-31.232,894.504
-66.368,-24.4,939.888
-48.8,-1.464,948.184
-1.464,-12.2,955.992
11.712,-56.608,936.472
-6.344,-61.0,909.144
-9.76,29.28,896.944
0.0,126.392,932.08
12.688,121.512,985.76
7.32,22.448,960.872
-1.952,-45.872,932.568
-7.32,-40.992,934.52
3.416,-11.712,984.784
9.272,-7.808,1022.36
0.976,-16.592,1023.336
-15.128,4.88,989.664
-17.568,35.136,972.096
-23.912,27.328,1007.232
-24.4,-29.28,1038.952
-31.232,-50.752,1033.584
-13.176,0.488,1026.752
-5.368,59.048,1001.864
-9.76,51.728,1005.768
-26.352,-5.368,1006.256
-39.04,-23.912,997.96
-12.688,6.832,1016.016
5.856,28.304,1016.504
-5.368,23.912,998.936
-23.424,6.832,1015.04
-20.984,-6.344,1004.304
-12.688,-31.72,996.984
-10.736,-24.4,988.2
-11.224,9.272,985.76
-20.984,12.688,996.496
-19.032,-2.44,998.936
-17.08,-22.936,1011.136
-20.008,-36.6,1009.184
-28.792,-26.352,1005.768
-32.208,-14.152,1012.112
-32.208,-34.16,996.984
-38.064,-66.856,1019.432
-32.208,-49.776,1021.384
-29.768,-6.344,1017.48
-27.816,0.976,1016.992
-28.792,-14.64,1003.328
-35.624,-22.936,1011.624
-33.672,-40.016,1025.776
-23.912,-55.632,1023.336
-27.328,-39.04,1014.552
-32.208,-17.568,997.472
-37.088,-19.52,1005.28
-27.816,-22.936,1002.352
-22.936,-9.272,996.984
-23.424,5.856,989.664
-30.256,-1.952,989.664
-37.088,-40.992,997.96
-30.256,-48.312,993.08
-29.768,-30.744,1002.352
-21.472,-14.64,996.496
-19.52,-5.856,993.08
-26.352,-23.912,1002.84
-25.376,-22.448,996.496
-33.184,-29.28,1008.208
-27.816,-30.256,1015.04
-39.528,-29.768,1012.112
-31.232,-22.936,1016.992
-22.448,-9.272,1002.84
-23.424,-14.64,1002.84
-22.936,-24.888,1019.432
-20.984,-29.768,1007.232
-35.624,-26.84,1000.4
-24.888,-22.936,1010.16
-25.864,-26.352,1002.84
-36.6,-41.968,1014.552
-28.792,-29.28,1002.84
-28.792,-22.936,1004.792
-21.96,-20.496,998.936
-25.864,-22.448,991.616
-33.184,-12.2,995.52
-24.888,-7.32,1003.328
-21.472,-6.344,1004.304
-32.208,-24.4,1003.816
-36.6,-37.576,1010.16
-32.208,-40.504,1015.04
-23.912,-37.576,1016.504
-23.424,-20.008,1007.72
-21.472,-14.64,1003.816
-24.4,-19.52,1009.672
-21.96,-23.424,1009.184
-20.984,-15.616,1001.376
-26.84,-25.376,1011.136
-26.84,-23.424,1008.696
-24.888,-20.496,1008.208
-23.424,-23.912,1017.968
-27.328,-34.648,1002.84
-19.032,-20.496,1001.376
-9.76,-2.928,989.664
-14.64,-12.688,1004.792
-1.464,-21.96,989.176
-12.2,-24.4,983.32
-5.368,-21.96,1001.376
-22.936,-27.328,994.544
-21.472,-29.768,1012.6
-25.376,-36.112,1016.016
-26.352,-42.456,1018.456
-28.304,-40.504,1016.992
-30.744,-31.232,1015.04
-27.328,-8.784,1003.328
-21.96,-12.2,1011.136
-26.352,-26.84,1007.232
-24.4,-19.032,1003.328
-10.248,-13.176,1004.304
-17.568,-28.304,1001.376
-25.864,-41.968,1008.696
-16.592,-32.696,1008.696
-20.496,-30.744,1003.328
-27.816,-33.184,1015.04
-35.624,-38.552,1002.352
-35.624,-39.04,1006.744
-23.424,-22.936,1015.528
-20.008,-9.76,997.96
-24.888,-15.128,995.032
-26.84,-25.864,991.616
-25.864,-38.064,987.224
-20.008,-40.504,988.2
-19.52,-32.696,996.496
-17.568,-22.448,1002.84
-17.568,-18.056,1016.016
-29.28,-26.352,1012.6
-28.792,-32.208,1021.872
-21.96,-31.72,1007.232
-13.176,-22.448,1013.088
-9.272,-26.84,1005.28
-15.128,-25.864,1008.208
-20.984,-31.232,1016.504
-21.96,-26.352,1009.184
-22.936,-38.064,1019.432
-19.032,-33.672,1013.576
-18.056,-39.04,1007.72
-19.52,-37.576,1009.184
-22.448,-28.792,1001.376
-26.84,-16.592,998.936
-26.352,-24.4,1005.28
-19.032,-40.016,1003.816
-17.08,-40.504,1007.232
-11.224,-16.592,994.544
