acc_x[mg],acc_y[mg],acc_z[mg]
2.275,-25.485,920.500
1.329,-23.351,1019.494
-2.000,-25.928,981.000
-4.407,-48.279,1017.423
-1.337,-59.190,999.542
-5.420,-24.909,1017.903
-7.210,-17.990,1008.664
-9.769,-53.456,1013.221
-5.579,-55.591,997.878
3.941,-38.812,1007.094
6.724,-28.381,989.655
-7.866,-20.207,1005.375
-5.586,-41.996,1003.936
-9.302,-53.884,1010.137
-5.954,-46.938,997.643
-3.308,-39.399,1006.061
0.031,-29.088,1000.668
-15.052,-43.360,1008.466
-14.231,-47.311,1005.683
-1.863,-45.446,1007.939
-2.195,-31.999,1002.957
-9.879,-27.644,1004.007
-4.281,-39.802,1012.998
-2.670,-41.548,1006.287
-15.669,-30.185,1013.343
-7.268,-33.707,1006.240
-7.958,-50.921,1010.976
-7.380,-44.069,1010.622
-1.835,-32.196,993.526
-5.918,-41.402,1005.236
-5.666,-39.863,1003.502
-13.966,-38.285,1003.648
-6.728,-30.664,999.127
-8.350,-29.892,998.376
-9.903,-27.819,1000.281
-13.252,-46.321,1011.499
-10.824,-41.827,998.776
-1.528,-19.753,1000.888
-6.614,-31.104,1008.259
-8.850,-41.015,1016.317
-2.459,-29.298,1004.192
-0.193,-24.985,1008.350
-11.522,-29.042,1006.809
-12.809,-49.042,1009.080
-7.932,-57.041,1010.708
-4.913,-30.362,1003.143
-6.237,-19.285,1006.092
-9.702,-46.407,1005.297
-6.580,-45.546,997.562
-3.780,-28.725,997.836
-1.180,-26.689,994.603
-7.386,-30.415,996.108
-11.458,-29.191,1009.513
-11.362,-33.185,1014.682
-3.554,-43.278,1015.112
-6.723,-37.740,1009.337
-10.713,-16.469,1019.283
-13.523,-19.801,1022.880
-6.089,-50.236,1018.910
-10.757,-44.344,1003.797
-14.372,-25.634,1012.060
-2.353,-30.026,1012.372
1.361,-29.313,999.207
-8.411,-26.349,979.944
-8.157,-34.721,983.560
2.336,-39.147,964.172
-7.347,-11.383,971.984
-3.511,-17.558,949.171
-2.445,-27.444,937.128
-2.688,-29.140,911.346
20.943,-33.336,843.937
52.242,-17.282,779.563
48.022,4.940,643.002
36.096,-32.861,543.080
59.566,-30.262,431.733
32.859,-85.897,438.916
-79.671,-304.174,542.534
-281.302,-487.116,630.437
-544.356,-488.013,687.225
-783.545,-299.254,808.827
-906.740,-7.381,1023.955
-922.636,172.442,1224.629
-953.105,-14.578,1370.244
-967.188,-234.230,1434.973
-937.731,-245.871,1420.393
-891.537,-150.632,1380.985
-773.875,-18.819,1285.598
-681.427,24.579,1182.765
-665.478,-68.944,1098.200
-674.852,-163.414,993.375
-642.517,-174.310,904.472
-572.558,-162.483,869.619
-490.238,-135.794,926.371
-439.264,-103.949,879.189
-428.768,-121.598,804.470
-388.190,-172.172,808.337
-323.383,-192.242,876.075
-285.466,-180.289,898.323
-286.288,-143.498,896.074
-265.210,-98.178,854.784
-203.476,-71.111,869.585
-147.580,-80.170,920.510
-147.738,-95.974,928.552
-147.266,-110.966,893.914
-116.343,-100.257,889.612
-75.313,-57.969,915.347
-36.216,-21.570,928.260
-4.851,-16.783,897.802
-15.214,-50.149,912.872
-34.676,-56.552,934.879
-20.530,-18.518,966.579
2.391,-15.828,972.904
7.380,-35.660,973.116
-9.912,-46.418,972.520
-9.507,-13.448,952.769
17.968,8.492,948.718
41.497,-7.528,964.956
47.691,-18.452,979.470
38.342,-40.548,961.656
46.390,-7.130,925.985
71.150,32.335,944.939
60.953,29.889,969.688
42.107,22.709,954.283
36.815,10.656,966.218
33.712,-4.627,986.879
31.760,24.314,1021.909
34.515,31.569,1016.806
45.661,9.796,1005.240
33.469,-4.188,1006.345
20.388,-7.920,1009.473
25.601,-2.637,1015.943
41.188,9.093,1002.125
23.297,-14.044,1002.359
16.611,-19.332,1012.697
25.820,5.786,998.437
34.365,11.371,1007.289
19.254,-5.128,1003.716
20.207,-8.436,1003.034
18.220,1.860,999.318
24.404,16.694,1012.477
23.805,9.811,1006.333
7.595,10.729,1010.626
10.739,11.556,1012.447
21.408,7.430,1009.932
8.349,4.261,1019.618
1.830,0.868,1009.948
15.306,11.640,997.685
17.049,4.563,1012.322
3.771,-11.134,1009.915
6.202,17.461,1002.929
11.622,21.665,1008.273
11.044,11.619,1002.587
9.688,-7.931,1007.884
11.609,-22.264,1012.635
14.662,12.179,1011.693
5.785,22.205,1008.372
5.516,-10.037,1003.330
13.730,-4.994,1015.709
18.378,-2.994,1004.056
8.954,-5.628,1012.209
11.915,12.321,1019.340
19.493,19.116,998.096
17.611,-6.659,1000.637
8.356,-16.526,994.710
14.902,-21.589,995.182
23.045,9.409,982.847
19.365,29.584,985.625
16.084,-2.700,938.494
26.401,-14.031,866.855
49.743,-12.263,737.233
84.346,-27.485,585.373
91.963,-19.509,443.979
98.951,48.439,308.454
51.391,-5.559,226.984
-122.289,-196.215,272.117
-440.524,-386.836,501.788
-757.231,-403.711,713.805
-882.692,-218.586,976.195
-930.077,-91.497,1245.575
-981.542,-117.580,1363.609
-1007.091,-188.799,1439.202
-1030.391,-230.671,1530.089
-974.270,-200.566,1534.447
-829.855,-110.980,1442.420
-780.571,-67.707,1306.507
-773.994,-77.079,1171.972
-714.926,-91.058,1051.180
-642.925,-116.109,1004.794
-604.416,-143.629,985.146
-563.311,-162.465,880.653
-481.319,-194.248,774.339
-378.593,-218.498,793.676
-305.787,-179.677,877.124
-304.664,-158.211,897.008
-314.384,-165.574,827.301
-272.959,-148.466,798.424
-191.984,-116.664,857.907
-142.713,-96.618,917.421
-122.742,-82.691,880.571
-141.872,-95.073,821.214
-101.594,-88.551,838.267
-32.306,-57.827,881.272
-13.276,-63.248,928.851
-25.109,-106.520,908.829
-33.238,-112.060,868.996
-12.759,-44.627,914.471
4.912,-35.134,988.625
10.468,-61.292,978.662
-1.991,-83.115,944.361
3.964,-72.615,959.972
3.931,-32.094,996.253
8.915,-1.905,999.178
27.116,-16.588,973.585
25.780,-32.609,933.563
14.487,-38.753,956.940
33.033,12.941,966.615
44.590,76.057,957.773
46.382,60.337,953.809
28.646,-32.447,969.034
20.417,-71.476,996.796
17.438,-16.296,989.700
31.081,25.962,1000.112
33.271,-3.788,1006.836
18.742,-22.403,1007.296
17.094,-12.591,1003.353
22.788,-0.080,997.809
28.894,20.650,993.164
23.469,14.619,1024.525
24.365,-4.468,1027.404
21.608,-1.637,1011.117
25.008,-7.964,996.465
23.177,-25.223,1015.395
14.265,-13.041,1021.148
18.798,-7.922,1010.695
26.817,-10.867,997.369
19.043,-23.001,1006.891
11.432,-16.081,1002.369
10.255,1.775,1007.853
13.195,3.633,1010.044
17.983,-20.262,1000.733
8.348,-16.199,1014.347
1.005,8.652,1004.113
15.778,-13.728,1011.077
21.548,-15.617,993.504
15.459,-13.512,1002.986
14.428,-27.195,1006.121
17.324,-19.871,1012.741
21.023,7.381,1008.454
10.957,2.128,1016.546
-1.326,-24.974,1018.870
8.224,0.767,1010.185
16.416,16.400,1008.910
10.197,-24.655,1015.069
5.727,-27.910,1005.439
20.588,4.953,999.008
17.105,11.857,997.720
8.934,-4.392,1002.987
1.773,-23.047,1008.728
5.997,-17.449,1009.401
13.340,2.392,1004.721
19.186,-6.744,998.077
8.360,-22.261,1009.707
1.451,-16.616,1016.705
13.546,-6.265,1004.886
26.344,-10.957,1001.070
13.376,-10.373,1000.307
10.196,15.425,991.230
10.786,16.708,979.874
8.059,-21.308,962.966
12.691,-16.463,898.960
44.049,-3.523,787.331
47.977,-48.587,630.288
8.840,-43.227,563.776
56.528,74.093,353.287
116.370,143.482,214.238
23.785,77.108,123.070
-223.598,-142.315,260.097
-550.594,-411.519,570.659
-815.232,-501.418,767.204
-930.817,-254.387,913.981
-1133.570,44.313,1227.639
-1368.112,73.266,1694.382
-1289.741,-166.346,1828.261
-1128.150,-326.380,1710.544
-1034.605,-210.870,1533.749
-956.871,-35.143,1356.199
-855.349,-1.874,1183.971
-753.443,-75.380,1060.381
-675.052,-182.030,921.593
-587.665,-216.412,852.652
-519.985,-164.916,757.725
-455.115,-126.024,667.072
-362.890,-99.228,754.727
-316.235,-71.299,843.925
-316.908,-66.194,788.208
-301.054,-92.359,732.877
-247.407,-113.938,791.277
-209.052,-124.441,881.131
-189.427,-86.837,903.978
-139.723,10.857,860.824
-121.038,16.856,831.084
-133.325,-87.993,899.188
-117.918,-128.678,946.218
-65.436,-62.976,943.210
-23.113,-20.908,879.345
-45.486,-30.778,897.468
-67.038,-20.014,940.973
-29.740,0.671,953.833
12.538,-38.954,946.447
-2.647,-66.797,914.974
-10.336,28.066,895.441
3.554,136.819,946.798
12.349,85.981,983.184
1.290,-27.636,939.697
-6.640,-46.330,931.896
2.556,-11.263,982.512
9.612,-10.711,1027.168
-6.490,-11.642,1011.453
-17.775,24.937,973.557
-21.287,33.749,997.411
-26.551,-29.012,1038.550
-27.494,-45.401,1032.728
-8.621,28.176,1017.673
-6.299,64.368,999.290
-22.808,5.441,1010.221
-37.842,-23.629,995.715
-7.601,12.882,1021.620
5.025,29.631,1004.956
-18.431,13.265,1009.244
-22.277,-3.191,1007.879
-13.334,-31.185,996.745
-9.571,-17.932,985.756
-15.540,15.318,990.964
-21.023,3.914,997.115
-16.851,-18.262,1009.382
-20.129,-36.870,1007.873
-30.306,-22.529,1009.376
-31.438,-17.718,1004.419
-36.192,-56.577,1007.792
-34.198,-58.044,1024.411
-29.296,-5.965,1016.425
-27.678,-2.213,1015.016
-31.384,-18.240,1002.816
-36.113,-31.604,1022.293
-25.774,-54.487,1024.730
-26.270,-39.246,1013.322
-34.642,-16.063,998.342
-33.839,-22.635,1005.835
-24.183,-16.361,998.858
-22.542,4.231,991.064
-30.980,-2.836,989.966
-35.490,-45.574,996.800
-30.147,-42.347,995.826
-25.311,-20.361,1001.708
-19.064,-6.709,991.358
-25.333,-21.677,1002.706
-27.791,-24.428,996.660
-31.031,-30.066,1014.166
-33.260,-30.202,1011.630
-36.572,-25.120,1017.264
-19.952,-9.707,1002.355
-26.371,-16.735,1007.079
-18.354,-27.621,1017.258
-31.894,-29.079,1000.366
-27.524,-22.613,1007.701
-26.409,-27.908,1005.504
-35.217,-40.164,1011.613
-28.430,-25.436,1002.621
-25.234,-21.464,1003.243
-23.493,-21.529,991.607
-33.407,-13.823,995.939
-22.771,-5.029,1003.563
-25.088,-12.727,1004.060
-36.552,-33.667,1006.643
-32.988,-40.678,1015.029
-24.931,-36.818,1015.355
-22.106,-17.994,1006.830
-23.145,-15.741,1004.804
-23.037,-23.054,1012.054
-21.194,-17.672,1001.270
-25.777,-23.387,1011.206
-27.675,-24.096,1006.554
-22.486,-19.240,1014.016
-27.408,-32.413,1010.342
-20.130,-24.656,999.329
-12.289,-3.718,993.044
-9.897,-14.567,1002.161
-5.833,-24.282,983.542
-8.795,-22.282,994.176
-16.601,-26.032,998.272
-24.681,-29.875,1008.657
-23.709,-37.932,1019.258
-28.350,-42.263,1015.958
-28.884,-36.783,1018.373
-29.635,-12.928,1004.228
-21.026,-11.711,1010.980
-28.269,-27.409,1005.259
-17.542,-14.025,1004.877
-12.381,-20.860,1001.131
-25.578,-40.508,1007.899
-17.243,-33.606,1007.010
-21.703,-30.550,1007.207
-31.057,-35.310,1010.886
-37.502,-40.416,1002.161
-25.847,-27.089,1014.988
-20.059,-9.716,999.595
-25.414,-17.153,993.427
-27.209,-30.894,990.785
-22.175,-41.361,985.689
-19.377,-34.491,995.568
-17.361,-22.543,1002.552
-19.768,-18.861,1016.619
-30.979,-29.850,1014.267
-24.621,-32.365,1018.256
-15.233,-25.339,1004.646
-8.957,-24.389,1013.020
-16.987,-29.044,1002.682
-21.372,-27.801,1022.725
-22.920,-33.072,1003.384
-20.079,-36.294,1029.593
-17.790,-37.144,991.853
-20.183,-37.860,1027.061
-23.988,-22.049,975.509
-27.903,-19.229,1033.278
-20.204,-37.321,961.258
-17.220,-40.425,1081.262
-8.578,-11.664,762.240
