acc_x[mg],acc_y[mg],acc_z[mg]
2.928,-27.816,1003.328
0.976,-23.424,994.056
-0.000,-22.936,990.640
-4.392,-35.624,1005.768
-3.416,-55.632,1004.792
-0.976,-56.608,1009.672
-6.344,-24.400,1011.136
-5.856,-14.640,1013.088
-10.248,-42.456,1013.576
-7.808,-60.024,1001.376
-3.416,-49.776,1004.792
5.856,-36.600,1001.376
6.832,-28.792,992.592
-6.344,-19.520,1001.376
-7.320,-32.696,1005.280
-5.856,-52.216,1008.208
-10.736,-51.728,1005.768
-3.416,-45.872,998.448
-5.368,-40.016,1005.768
2.440,-28.304,1001.376
-10.736,-38.552,1005.768
-17.568,-46.848,1007.720
-9.760,-47.336,1006.256
-0.976,-43.920,1007.232
-1.952,-32.208,1003.816
-9.272,-26.352,1001.864
-7.808,-36.112,1012.112
-0.000,-42.456,1009.672
-8.296,-39.040,1007.232
-14.640,-27.816,1013.576
-8.784,-35.136,1007.232
-4.880,-47.336,1006.744
-11.712,-51.240,1017.968
-0.976,-33.672,996.008
-4.880,-35.624,998.936
-4.880,-41.480,1003.816
-5.856,-40.016,1005.280
-13.664,-39.040,1002.840
-9.272,-32.696,1000.888
-6.344,-30.256,998.936
-9.272,-28.304,996.984
-10.248,-29.768,1003.328
-13.176,-45.872,1010.648
-12.200,-46.360,1001.864
-3.904,-23.424,997.472
-1.952,-22.936,1004.792
-9.760,-36.112,1012.112
-6.832,-40.992,1014.552
-3.904,-28.304,1006.256
1.952,-25.864,1003.816
-8.784,-25.864,1013.088
-13.176,-37.576,1000.888
-11.712,-55.632,1016.504
-6.832,-54.168,1004.792
-5.368,-30.744,1007.232
-5.368,-17.080,1002.352
-9.272,-37.576,1009.184
-8.784,-51.240,999.424
-4.880,-39.040,997.960
-4.392,-27.328,996.984
0.488,-26.840,996.008
-8.296,-29.768,993.080
-8.296,-30.256,1007.232
-14.640,-29.280,1011.136
-6.832,-37.088,1016.992
-4.880,-43.920,1013.576
-5.368,-37.576,1009.184
-11.224,-20.008,1018.456
-12.688,-13.176,1021.384
-10.736,-36.112,1023.824
-5.368,-53.680,1012.600
-12.200,-40.016,1003.816
-15.128,-25.864,1012.600
-3.416,-28.792,1012.600
0.976,-30.744,1006.744
-1.952,-27.328,985.760
-11.224,-26.840,981.856
-6.344,-38.064,980.880
3.416,-38.064,965.264
-7.320,-16.592,969.168
-4.880,-9.760,963.312
-2.440,-26.840,934.520
-2.928,-26.352,939.400
-1.464,-30.256,897.432
21.472,-34.160,846.192
48.312,-20.496,793.976
54.168,0.488,691.496
37.576,-6.832,586.088
42.456,-43.432,510.448
61.000,-25.376,415.288
33.184,-87.840,444.568
-55.632,-263.520,519.720
-203.496,-441.152,610.488
-410.408,-516.304,654.408
-631.472,-439.688,719.312
-813.496,-258.152,835.944
-908.168,-4.392,1029.192
-919.392,163.968,1189.744
-941.840,81.008,1333.704
-965.752,-152.744,1410.320
-960.872,-253.760,1439.600
-931.104,-238.632,1412.272
-892.552,-147.376,1383.480
-795.440,-41.480,1303.448
-702.232,29.768,1213.656
-667.096,-12.688,1141.432
-668.560,-107.360,1065.792
-673.928,-170.800,974.048
-642.696,-174.216,909.144
-584.624,-164.456,861.320
-518.744,-147.864,915.000
-455.792,-116.632,915.000
-435.784,-102.480,851.072
-425.048,-130.784,797.392
-387.472,-170.312,809.104
-335.256,-194.224,865.712
-290.360,-183.976,896.944
-286.456,-167.872,898.408
-282.552,-124.928,888.160
-258.152,-94.184,846.192
-203.496,-69.296,874.984
-152.256,-78.080,908.656
-144.936,-91.256,937.448
-150.304,-102.968,908.168
-140.544,-113.704,889.624
-109.312,-92.720,891.576
-74.664,-59.536,915.488
-44.408,-24.888,931.104
-9.760,-14.152,905.728
-7.320,-30.744,899.872
-21.472,-59.536,921.344
-37.088,-51.240,938.912
-18.544,-18.544,967.216
-1.952,-13.176,973.560
9.272,-29.280,971.608
0.000,-43.920,975.024
-14.640,-40.992,967.704
-4.880,-5.856,948.672
16.592,8.296,951.112
40.016,-5.368,958.920
46.360,-13.176,979.904
45.384,-31.232,972.584
35.136,-38.064,951.112
53.192,3.904,921.832
68.320,29.768,947.208
67.832,34.648,968.192
43.432,20.984,959.896
41.480,22.448,955.504
33.672,0.000,974.048
34.160,-0.488,990.152
32.208,22.936,1024.800
31.232,34.648,1017.480
45.872,16.592,1009.184
39.528,1.464,1003.328
30.256,-6.344,1008.696
17.568,-7.808,1009.184
26.840,-2.928,1017.480
40.016,9.272,1004.304
31.232,-3.904,998.448
16.592,-23.424,1011.136
18.544,-10.736,1007.720
28.304,7.808,998.936
34.160,12.688,1006.744
21.960,-3.904,1005.768
17.568,-8.296,1001.864
21.472,-5.368,1001.864
17.080,7.808,1000.888
27.328,17.568,1015.040
22.448,8.784,1005.280
10.736,10.736,1009.184
5.856,11.712,1014.552
19.032,9.760,1008.208
18.544,6.344,1014.064
6.344,3.416,1019.432
0.976,0.976,1010.160
13.664,9.272,998.448
18.544,11.712,1005.280
10.736,-8.296,1016.992
1.952,-4.392,1002.840
7.808,21.472,1006.744
11.712,21.472,1005.768
10.736,13.176,1005.768
10.736,0.976,1002.840
9.272,-20.496,1013.088
13.664,-14.640,1011.136
14.152,18.056,1012.600
4.880,22.448,1007.720
5.856,-6.344,1003.816
9.272,-10.248,1010.648
19.032,0.000,1015.040
15.128,-6.832,998.448
8.296,-2.440,1019.920
12.200,10.736,1016.016
18.056,22.448,1002.840
20.496,0.976,997.960
11.712,-13.176,997.960
8.784,-19.032,996.496
17.080,-20.008,990.640
22.448,9.760,987.224
21.472,30.744,981.856
14.640,9.272,965.264
20.984,-13.176,900.360
31.232,-12.200,834.968
56.120,-14.152,711.016
84.424,-26.352,581.696
91.256,-28.304,475.800
97.600,30.256,339.160
88.328,43.920,270.840
8.784,-59.048,208.864
-164.944,-233.752,311.344
-442.128,-384.544,494.344
-713.944,-421.632,685.640
-862.296,-285.480,873.032
-902.312,-136.152,1128.256
-952.088,-85.400,1298.568
-984.296,-130.784,1376.648
-1009.672,-187.880,1437.160
-1026.264,-227.896,1521.096
-1010.160,-220.576,1543.056
-900.360,-156.648,1500.112
-798.368,-87.840,1396.656
-782.264,-67.344,1285.392
-772.504,-77.104,1171.200
-729.072,-88.328,1068.232
-662.704,-106.384,1010.648
-621.224,-130.784,1001.376
-592.920,-150.792,959.408
-553.880,-165.432,860.344
-479.704,-195.200,771.040
-397.232,-217.648,787.144
-320.616,-197.640,845.216
-299.632,-160.552,906.704
-309.880,-162.016,873.520
-312.320,-164.456,820.816
-273.280,-148.352,794.952
-203.496,-122.000,847.168
-156.648,-101.504,904.264
-126.392,-88.816,911.584
-128.832,-83.448,855.464
-140.544,-97.112,818.376
-102.968,-89.792,839.360
-39.040,-59.048,872.544
-16.592,-59.536,916.464
-15.128,-78.568,930.128
-32.208,-122.488,889.136
-30.256,-99.552,871.568
-13.176,-47.336,913.048
2.440,-29.768,981.856
11.712,-54.168,990.640
3.416,-72.712,956.480
-1.464,-85.400,945.256
4.392,-66.368,964.288
4.880,-32.696,998.936
5.368,-3.416,998.448
22.936,-8.784,987.712
28.792,-26.840,949.160
21.960,-35.136,933.544
13.664,-38.064,964.776
35.136,16.592,963.800
41.480,65.392,961.360
49.288,81.008,953.064
37.576,13.664,957.456
24.888,-55.144,980.880
19.032,-68.808,996.496
18.056,-15.128,991.616
27.328,23.912,995.032
37.088,10.248,1009.184
24.400,-19.032,1004.304
17.568,-20.008,1008.696
17.080,-10.736,1001.376
22.936,-0.488,998.448
28.792,18.544,992.104
25.376,20.008,1011.624
22.936,3.904,1034.072
24.888,-6.344,1019.432
20.008,0.000,1010.648
26.840,-8.784,994.544
22.448,-23.424,1012.600
18.544,-19.520,1022.360
12.688,-7.320,1016.504
23.912,-9.272,1005.280
25.864,-11.712,998.448
19.032,-23.424,1004.792
12.688,-19.032,1007.720
9.272,-2.928,998.448
12.200,5.368,1017.968
14.152,-1.952,1000.888
18.544,-23.912,1004.304
7.808,-16.104,1015.528
0.488,7.808,1001.864
10.248,-4.392,1014.064
20.984,-20.008,998.936
20.008,-11.224,996.496
14.640,-17.080,1002.840
14.152,-25.376,1007.232
17.080,-25.376,1012.112
19.520,0.976,1009.672
19.520,9.760,1011.136
3.904,-7.808,1018.944
-0.000,-25.376,1017.968
7.320,0.488,1010.648
16.592,20.008,1007.232
13.176,-11.712,1015.528
5.856,-33.184,1010.160
9.272,-18.544,1003.328
22.936,9.760,997.960
15.616,11.224,997.960
11.712,-0.976,1002.352
1.952,-17.568,1006.256
3.904,-25.376,1011.136
7.320,-8.784,1006.744
15.616,2.440,1005.280
18.544,-6.344,996.496
11.224,-20.984,1008.208
1.464,-20.984,1016.504
5.368,-9.272,1011.624
20.008,-7.320,1001.864
25.376,-11.224,1001.864
13.664,-11.224,999.424
9.272,11.224,995.032
11.712,22.936,980.880
9.272,-2.928,976.976
7.320,-25.864,946.232
17.080,-12.688,883.280
42.456,-2.440,792.024
54.656,-40.992,643.184
16.104,-59.048,597.312
20.496,8.296,468.968
85.400,111.264,291.336
112.728,141.520,197.640
25.864,78.080,124.440
-177.632,-98.088,211.304
-435.296,-328.424,479.216
-707.112,-495.320,676.856
-859.368,-453.352,821.792
-955.504,-193.736,939.888
-1129.720,41.480,1234.152
-1350.296,94.672,1624.552
-1343.464,-76.128,1832.928
-1199.504,-278.648,1778.272
-1093.120,-314.272,1657.736
-1020.408,-177.144,1501.576
-957.944,-35.136,1357.616
-873.520,2.440,1209.264
-783.728,-43.920,1099.464
-714.432,-129.808,992.592
-646.112,-206.912,885.720
-574.376,-210.816,846.680
-520.208,-164.944,755.912
-467.504,-130.784,671.000
-394.792,-108.336,712.480
-327.448,-84.912,812.520
-318.176,-64.904,843.264
-312.808,-69.784,767.624
-305.000,-91.744,739.320
-253.760,-111.752,769.576
-219.600,-122.488,861.320
-200.080,-116.144,898.408
-175.680,-56.120,897.432
-132.736,23.424,851.072
-120.048,15.616,829.112
-133.712,-68.808,889.624
-125.904,-131.760,932.080
-96.624,-100.528,957.456
-44.896,-41.968,919.880
-22.936,-20.008,877.424
-45.872,-31.232,894.504
-66.368,-24.400,939.888
-48.800,-1.464,948.184
-1.464,-12.200,955.992
11.712,-56.608,936.472
-6.344,-61.000,909.144
-9.760,29.280,896.944
-0.000,126.392,932.080
12.688,121.512,985.760
7.320,22.448,960.872
-1.952,-45.872,932.568
-7.320,-40.992,934.520
3.416,-11.712,984.784
9.272,-7.808,1022.360
0.976,-16.592,1023.336
-15.128,4.880,989.664
-17.568,35.136,972.096
-23.912,27.328,1007.232
-24.400,-29.280,1038.952
-31.232,-50.752,1033.584
-13.176,0.488,1026.752
-5.368,59.048,1001.864
-9.760,51.728,1005.768
-26.352,-5.368,1006.256
-39.040,-23.912,997.960
-12.688,6.832,1016.016
5.856,28.304,1016.504
-5.368,23.912,998.936
-23.424,6.832,1015.040
-20.984,-6.344,1004.304
-12.688,-31.720,996.984
-10.736,-24.400,988.200
-11.224,9.272,985.760
-20.984,12.688,996.496
-19.032,-2.440,998.936
-17.080,-22.936,1011.136
-20.008,-36.600,1009.184
-28.792,-26.352,1005.768
-32.208,-14.152,1012.112
-32.208,-34.160,996.984
-38.064,-66.856,1019.432
-32.208,-49.776,1021.384
-29.768,-6.344,1017.480
-27.816,0.976,1016.992
-28.792,-14.640,1003.328
-35.624,-22.936,1011.624
-33.672,-40.016,1025.776
-23.912,-55.632,1023.336
-27.328,-39.040,1014.552
-32.208,-17.568,997.472
-37.088,-19.520,1005.280
-27.816,-22.936,1002.352
-22.936,-9.272,996.984
-23.424,5.856,989.664
-30.256,-1.952,989.664
-37.088,-40.992,997.960
-30.256,-48.312,993.080
-29.768,-30.744,1002.352
-21.472,-14.640,996.496
-19.520,-5.856,993.080
-26.352,-23.912,1002.840
-25.376,-22.448,996.496
-33.184,-29.280,1008.208
-27.816,-30.256,1015.040
-39.528,-29.768,1012.112
-31.232,-22.936,1016.992
-22.448,-9.272,1002.840
-23.424,-14.640,1002.840
-22.936,-24.888,1019.432
-20.984,-29.768,1007.232
-35.624,-26.840,1000.400
-24.888,-22.936,1010.160
-25.864,-26.352,1002.840
-36.600,-41.968,1014.552
-28.792,-29.280,1002.840
-28.792,-22.936,1004.792
-21.960,-20.496,998.936
-25.864,-22.448,991.616
-33.184,-12.200,995.520
-24.888,-7.320,1003.328
-21.472,-6.344,1004.304
-32.208,-24.400,1003.816
-36.600,-37.576,1010.160
-32.208,-40.504,1015.040
-23.912,-37.576,1016.504
-23.424,-20.008,1007.720
-21.472,-14.640,1003.816
-24.400,-19.520,1009.672
-21.960,-23.424,1009.184
-20.984,-15.616,1001.376
-26.840,-25.376,1011.136
-26.840,-23.424,1008.696
-24.888,-20.496,1008.208
-23.424,-23.912,1017.968
-27.328,-34.648,1002.840
-19.032,-20.496,1001.376
-9.760,-2.928,989.664
-14.640,-12.688,1004.792
-1.464,-21.960,989.176
-12.200,-24.400,983.320
-5.368,-21.960,1001.376
-22.936,-27.328,994.544
-21.472,-29.768,1012.600
-25.376,-36.112,1016.016
-26.352,-42.456,1018.456
-28.304,-40.504,1016.992
-30.744,-31.232,1015.040
-27.328,-8.784,1003.328
-21.960,-12.200,1011.136
-26.352,-26.840,1007.232
-24.400,-19.032,1003.328
-10.248,-13.176,1004.304
-17.568,-28.304,1001.376
-25.864,-41.968,1008.696
-16.592,-32.696,1008.696
-20.496,-30.744,1003.328
-27.816,-33.184,1015.040
-35.624,-38.552,1002.352
-35.624,-39.040,1006.744
-23.424,-22.936,1015.528
-20.008,-9.760,997.960
-24.888,-15.128,995.032
-26.840,-25.864,991.616
-25.864,-38.064,987.224
-20.008,-40.504,988.200
-19.520,-32.696,996.496
-17.568,-22.448,1002.840
-17.568,-18.056,1016.016
-29.280,-26.352,1012.600
-28.792,-32.208,1021.872
-21.960,-31.720,1007.232
-13.176,-22.448,1013.088
-9.272,-26.840,1005.280
-15.128,-25.864,1008.208
-20.984,-31.232,1016.504
-21.960,-26.352,1009.184
-22.936,-38.064,1019.432
-19.032,-33.672,1013.576
-18.056,-39.040,1007.720
-19.520,-37.576,1009.184
-22.448,-28.792,1001.376
-26.840,-16.592,998.936
-26.352,-24.400,1005.280
-19.032,-40.016,1003.816
-17.080,-40.504,1007.232
-11.224,-16.592,994.544
