acc_x[mg],acc_y[mg],acc_z[mg]
1009.672,-4.392,34.648
1008.208,-5.368,42.456
994.056,-0.488,45.384
991.616,-6.344,45.872
999.424,-2.44,47.824
1006.256,-5.368,47.336
996.008,-7.32,48.312
994.544,-4.392,45.872
995.52,-10.248,44.408
1006.256,-9.76,43.432
997.472,-1.464,41.48
999.912,-2.928,40.504
999.424,-6.344,46.36
1000.888,-5.368,43.432
1001.864,-6.344,42.456
988.688,-2.44,49.288
996.984,-5.856,46.848
1009.672,-9.272,37.088
1000.888,-2.44,41.968
987.224,-3.416,49.288
991.128,-1.952,50.264
1011.136,-10.248,45.384
1000.4,-4.392,44.408
992.592,0.976,45.872
992.592,-2.928,37.088
1004.304,-5.368,41.968
993.568,-7.32,44.896
989.176,17.568,50.752
1007.72,-15.616,33.672
996.496,-15.128,44.896
1000.888,-5.856,46.36
1002.84,-4.88,48.8
994.544,-7.32,48.312
994.056,-6.344,46.848
1000.888,-7.808,47.824
1000.888,-5.856,42.944
994.544,-6.344,40.504
993.08,-5.368,47.824
1003.328,-6.832,47.824
1007.232,-7.808,41.48
1000.888,-4.88,39.04
995.52,-5.368,42.456
995.032,-11.224,50.264
1003.328,-16.592,46.36
996.984,-11.224,45.872
996.496,-1.952,43.432
1003.328,-4.88,39.528
995.52,-6.344,42.456
1000.4,-7.32,45.384
991.128,-7.32,46.36
1004.792,-9.76,41.968
1002.352,-6.832,41.968
993.568,-6.832,45.872
1001.864,-3.904,40.016
1002.352,-9.76,43.432
996.984,-5.856,43.432
996.496,-1.952,46.36
1001.376,-9.272,47.336
996.984,-9.76,43.92
1001.864,-6.344,41.968
1000.4,-3.416,40.992
991.128,-5.856,47.824
992.104,-6.832,45.384
1010.16,-7.32,39.04
995.52,-2.44,43.92
991.128,-4.392,43.92
999.424,-6.344,43.432
1001.864,-6.832,40.992
1000.4,-10.248,48.8
991.128,-3.904,48.8
997.472,-7.32,43.432
1004.792,-10.736,40.992
1005.768,-11.712,42.944
997.472,-5.856,38.064
998.936,-4.392,45.872
1000.888,-7.808,44.408
997.96,-7.32,37.576
996.984,-1.952,44.896
997.472,-7.32,41.968
995.032,-7.32,39.04
1002.84,-9.76,44.896
1005.768,-5.368,41.48
992.592,-1.952,52.704
995.032,-6.832,49.288
1010.648,-11.712,40.992
998.448,-5.368,46.848
992.592,-1.952,41.48
1000.888,-10.736,39.04
996.984,-4.392,44.896
1009.184,-18.056,36.112
984.296,2.44,51.728
1010.16,-2.44,33.184
988.688,-0.976,43.432
996.984,-5.856,44.408
995.52,-8.296,40.016
994.056,-8.296,43.432
1009.672,-11.712,35.624
994.056,0.488,46.848
998.448,6.832,40.504
1002.352,-5.368,41.968
998.936,-8.296,46.848
998.448,-3.904,44.896
997.96,-10.248,43.92
996.496,-7.808,41.968
1000.4,-4.392,41.48
995.032,-5.856,48.312
996.984,-7.808,42.944
1000.4,-8.296,42.944
994.544,-7.32,41.968
1002.84,-5.856,44.896
997.472,-1.464,42.456
993.08,-6.344,43.92
1005.768,-14.152,45.872
996.008,-3.904,44.408
997.472,-4.392,37.576
995.032,-0.976,47.336
1006.256,-5.856,39.04
995.52,-8.296,44.408
992.592,-5.368,47.824
1011.136,-7.32,40.504
996.984,-1.952,51.24
997.472,-0.488,44.408
1003.328,-9.76,44.896
997.96,-2.44,50.752
992.592,-5.856,38.064
1001.864,-3.904,48.312
994.544,-5.856,50.752
998.936,-8.296,44.896
993.08,0.0,40.504
994.544,-2.44,42.944
997.472,-7.808,40.992
997.472,-6.344,44.408
998.936,-4.392,45.384
993.08,-7.808,41.968
995.032,-7.32,41.968
1007.232,-4.392,37.576
1004.792,-8.296,45.384
1003.328,-2.928,39.528
996.984,-3.904,44.896
1002.352,-9.76,44.408
1002.84,-6.832,45.384
990.152,-5.368,44.408
1002.84,-5.368,42.944
1002.352,-6.832,38.064
992.592,-4.392,41.48
999.912,-6.832,39.528
1001.376,-6.832,46.36
1001.864,-8.296,41.48
995.032,-6.344,50.752
992.104,-1.464,47.336
997.472,-7.32,52.704
981.368,21.472,55.144
1019.432,-14.152,39.04
989.664,-17.08,52.216
998.936,-10.248,40.016
997.96,-8.784,42.944
1004.304,-3.904,41.968
1003.816,-3.416,46.848
1002.352,-11.224,43.432
995.52,-2.928,44.408
999.424,-9.76,45.384
1004.792,-7.32,41.968
999.424,-3.416,49.776
993.568,-7.808,48.312
996.496,-6.344,46.848
1001.864,-10.248,42.944
993.568,-4.88,42.944
1004.792,-3.904,38.552
1001.376,-6.832,42.456
1005.768,-9.76,39.528
993.08,-6.344,44.408
995.032,-7.32,47.336
998.936,-10.248,47.336
1006.744,-10.248,36.112
986.736,-1.464,40.016
999.424,-8.296,39.528
999.912,-4.392,40.016
991.128,-10.248,47.336
1002.352,-10.736,38.552
1000.4,-8.784,42.944
995.52,-0.976,40.504
999.912,-9.76,41.968
1000.888,-9.76,39.528
1002.84,-6.344,38.064
983.808,2.44,40.504
1001.864,-11.224,37.576
997.96,-8.296,37.576
998.936,-2.44,37.576
1003.328,-7.808,34.648
995.52,-10.736,39.04
998.448,-8.296,42.456
1007.72,-7.808,40.504
997.96,-11.224,42.456
996.984,-16.592,36.112
998.448,-8.784,42.456
1002.84,-3.904,34.648
994.056,5.368,37.088
993.08,-7.808,45.872
1002.84,-9.76,42.456
1003.328,-8.784,35.136
1010.648,-10.248,33.184
991.128,2.44,43.432
989.664,-4.392,42.456
1001.864,-13.664,41.48
1007.72,-13.176,33.184
994.544,-3.416,39.04
995.52,-6.344,41.968
1002.352,-10.736,32.208
1001.864,-1.952,42.944
998.448,-6.344,40.016
987.712,-4.392,37.088
996.496,-1.464,40.016
983.32,-0.488,48.8
1006.256,-31.232,33.672
1005.768,-19.032,27.328
982.832,8.784,46.36
1023.336,-3.416,29.28
991.128,-11.224,41.48
981.368,-2.928,44.408
1001.864,-8.296,35.136
1006.744,-6.344,34.648
1004.792,-6.832,33.672
996.984,-2.928,34.16
994.544,-4.88,42.944
998.448,-5.856,44.408
1005.768,-12.2,32.208
998.936,-7.32,40.504
994.544,-2.44,41.968
990.152,-7.32,43.92
1003.328,-9.76,33.672
1003.328,-10.248,33.184
998.936,-6.832,32.208
998.936,-8.296,39.528
1004.304,-7.808,35.136
1002.352,-23.424,36.6
995.032,-11.224,39.528
1000.888,-2.44,34.648
999.912,-5.368,39.528
997.472,-2.928,31.72
993.08,-7.808,40.016
997.472,-8.784,35.136
992.104,-2.44,36.6
994.056,-7.32,39.04
1009.184,-13.176,32.696
992.592,-8.296,33.672
995.52,-3.416,29.28
1001.376,-11.224,30.256
993.08,-9.272,29.28
992.592,-8.296,31.72
1004.792,-18.544,31.232
982.344,-10.736,34.648
969.168,-20.008,-70.272
1005.28,0.488,22.448
955.992,-12.688,2.44
985.76,41.968,49.288
1032.608,11.224,-16.592
941.84,46.36,20.496
981.856,-24.4,-10.736
1011.624,-47.824,-42.456
1008.696,-5.856,-76.616
1030.168,7.808,-96.624
1020.896,-33.184,-128.344
1068.72,-78.568,-111.264
1060.424,-97.6,-102.48
1059.448,-104.432,-90.768
1027.728,-101.992,-74.176
987.712,-64.416,-68.808
959.408,-5.368,-55.144
1035.048,26.352,-76.616
1055.544,9.76,-82.472
1043.832,-21.472,-86.376
996.496,-48.312,-64.416
952.088,-36.112,-47.824
960.872,11.712,-41.968
974.048,24.4,-33.672
978.44,-1.464,-27.816
980.88,-46.848,-22.936
959.896,-96.136,-15.128
946.232,-116.144,9.76
977.952,-109.312,-11.712
996.984,-41.968,-14.64
989.664,33.672,-15.128
986.736,30.744,-12.688
947.208,-19.52,-9.76
979.416,-63.44,-5.856
1037.488,-107.36,-14.64
1045.784,-81.984,-20.008
1052.616,-13.176,-36.6
1056.032,82.472,-28.792
1048.712,86.376,-20.008
1001.376,58.56,-4.392
984.296,32.696,4.392
1016.504,-8.784,1.464
1077.016,-25.376,-12.688
1037.0,-19.52,3.904
853.512,272.304,94.184
1137.04,77.592,-154.208
1010.648,80.52,-21.472
865.712,108.336,86.864
1061.4,180.56,69.296
931.104,142.008,137.128
1011.136,184.464,84.912
967.216,176.656,87.84
978.928,162.992,103.944
977.952,183.488,102.968
959.408,169.824,147.864
1021.384,158.6,165.432
984.784,144.936,151.28
1004.792,166.408,149.328
980.392,172.752,138.592
894.992,225.944,167.384
842.776,266.936,158.6
913.048,211.792,130.784
1002.84,285.968,29.768
1015.04,265.96,21.472
1003.328,274.256,35.136
942.328,262.544,63.44
901.336,251.32,53.192
918.416,266.448,27.816
953.552,250.344,40.016
992.592,251.32,32.696
949.16,248.392,44.408
892.064,254.248,28.304
889.136,263.52,-12.688
901.824,256.688,-31.232
995.52,247.416,-25.376
1006.256,238.632,6.832
982.344,233.264,21.472
965.264,234.24,38.064
947.696,244.488,24.4
952.576,252.296,15.128
994.544,257.664,-5.856
973.56,244.0,12.2
968.68,248.392,32.208
944.768,255.224,32.696
915.0,267.424,-6.832
942.816,275.232,-13.664
1002.84,271.816,-21.472
1004.792,255.224,-5.856
971.12,271.816,-4.88
949.648,274.256,-9.272
954.04,283.04,-14.152
948.672,270.352,-23.912
948.672,294.752,-23.424
982.832,284.992,-30.256
939.4,271.328,-8.784
934.52,255.712,-4.88
963.8,281.576,4.392
999.424,266.936,-2.44
973.56,261.08,-13.176
1033.584,250.344,-17.08
960.384,245.952,-18.056
938.424,268.888,-23.424
934.032,266.448,0.0
944.768,268.888,9.76
942.328,264.984,-10.736
954.04,220.088,-8.296
967.704,284.016,2.44
951.6,286.944,-44.408
932.08,277.672,-43.92
960.384,279.624,-34.16
922.808,277.184,-25.864
931.104,286.456,-42.944
949.648,298.656,-81.496
927.688,284.504,-78.08
946.232,291.824,-109.8
907.192,304.024,-115.168
873.032,307.928,-112.728
835.944,336.72,-162.016
809.104,333.304,-165.432
790.56,309.88,-124.44
632.448,298.168,-124.44
360.632,343.064,-137.128
-130.296,210.816,-173.728
-868.64,-45.872,-27.328
-1892.952,-636.84,271.328
-2988.024,-1725.568,189.344
-2643.496,-3048.048,-112.728
-1113.616,-4270.976,-745.664
2512.224,-3895.216,3721.0
5750.592,-3568.256,1127.768
1391.288,-3169.072,586.088
-995.52,-1297.104,-1082.384
-1350.784,-922.32,-1428.376
944.28,-1165.344,-1159.488
1504.016,-1650.904,27.816
1633.336,-1874.896,351.36
639.768,-2159.4,468.968
325.008,-2086.2,129.808
428.952,-1859.28,-13.176
1660.664,-1848.056,-424.56
2199.416,-2335.08,-711.016
1749.968,-3650.24,-1092.144
-1028.216,-4261.704,-174.704
-2322.88,-2009.096,-25.376
-887.184,221.552,-162.504
-915.0,494.344,426.512
-1263.92,1019.432,141.52
-412.848,976.976,-157.136
573.888,553.392,87.84
1189.256,471.408,-48.8
1083.36,508.984,-123.464
920.368,567.544,-173.728
913.048,503.128,-147.376
1130.696,386.984,-90.768
1413.248,284.504,12.2
1108.736,369.416,-31.232
892.064,379.176,36.6
872.544,311.832,146.888
887.672,291.824,169.336
994.544,283.04,124.44
1063.84,284.504,112.728
971.12,311.344,79.544
837.408,336.72,45.384
826.184,323.544,77.104
893.04,305.488,74.664
964.288,273.768,83.448
1020.896,302.072,41.48
989.664,305.0,64.416
962.336,344.528,41.968
931.592,332.328,83.936
941.352,306.952,125.904
989.664,296.704,122.976
1015.04,295.24,127.368
962.824,306.952,115.656
902.312,325.496,87.84
880.84,329.888,91.256
889.624,336.232,60.512
954.528,315.248,75.152
1003.816,322.568,45.384
954.528,331.352,42.944
950.624,339.648,44.896
910.12,351.36,49.288
939.4,321.104,77.104
943.792,339.648,81.496
946.232,337.696,45.872
895.48,342.576,31.232
862.784,344.04,37.576
874.496,333.792,64.904
949.648,314.76,59.536
968.192,301.096,70.76
920.856,316.224,56.12
878.4,337.208,50.752
857.416,336.72,36.6
860.832,320.616,28.792
922.808,307.928,9.272
985.272,277.184,39.528
991.616,275.232,52.704
918.416,318.176,-5.368
843.752,319.64,6.344
871.08,292.8,38.064
874.984,276.208,47.824
913.048,260.104,36.6
921.344,235.216,37.576
1038.952,207.888,30.744
999.912,216.672,-25.864
963.8,194.224,-7.32
1005.768,173.24,4.88
1026.752,156.648,-11.712
1344.928,49.776,-20.496
1167.784,42.456,107.848
1055.544,112.728,33.672
918.904,140.056,64.904
810.568,122.0,79.544
953.552,87.84,126.392
975.512,81.984,44.896
1044.808,113.704,-39.04
1073.112,119.56,54.168
963.8,115.168,46.36
963.8,95.16,69.296
974.048,125.904,61.488
988.2,115.168,195.2
1065.304,156.648,84.912
858.392,132.736,49.776
944.28,58.072,178.608
1142.896,283.04,66.856
1105.32,167.384,84.912
932.08,73.688,122.0
968.192,217.16,130.784
1056.032,21.96,61.488
1007.72,61.0,88.816
920.368,58.56,115.656
942.328,30.744,93.696
988.2,124.44,85.888
1189.744,197.152,46.848
937.448,208.376,106.384
906.704,131.76,127.368
971.608,74.176,101.992
994.056,-0.0,87.84
963.8,-65.392,87.84
1015.528,181.536,53.192
1076.04,201.544,41.968
1014.064,146.888,85.4
940.864,102.968,87.84
965.264,0.0,66.856
955.504,14.152,83.448
1030.168,121.024,60.512
1047.248,126.88,51.728
1039.928,154.208,44.896
994.544,136.152,64.904
961.36,82.472,75.152
979.904,24.888,73.2
1014.064,5.856,61.488
1036.512,139.568,37.576
1037.488,165.92,31.72
1006.744,85.4,41.48
971.608,3.416,54.656
931.592,-22.936,76.616
1012.6,32.696,43.92
1012.112,93.696,27.816
1041.88,76.616,19.52
1004.304,67.344,42.944
962.824,-10.248,49.776
1002.84,-0.976,54.656
1000.888,32.208,45.384
1002.84,25.376,39.04
1016.504,103.944,14.152
995.52,87.352,28.792
1008.208,-10.248,19.032
1013.088,-34.16,34.16
1018.944,30.744,37.088
981.856,73.688,29.28
985.272,59.048,27.328
995.032,43.432,27.328
989.664,-5.368,25.376
1011.624,24.4,29.768
983.808,25.864,40.016
1008.696,48.8,22.448
1022.36,42.456,15.616
1008.208,48.8,16.592
992.592,6.832,34.16
1005.28,32.696,28.792
998.448,45.872,24.4
977.464,41.48,28.792
1008.696,29.768,16.104
972.096,41.48,31.72
973.072,10.248,22.448
1016.992,13.176,10.736
982.832,55.144,13.664
1000.4,40.016,16.592
1009.672,33.672,15.128
951.6,46.36,27.816
1020.408,5.856,10.736
1000.888,6.344,22.448
1001.376,19.52,17.568
1016.504,27.328,11.712
992.104,10.736,20.008
989.664,27.328,24.888
1002.352,56.12,25.376
989.664,43.92,19.032
1018.944,18.544,8.784
984.296,21.472,13.664
1016.992,-3.904,13.176
1016.504,-1.952,14.152
984.784,33.672,20.496
981.368,34.648,10.248
966.24,17.08,24.888
982.832,5.856,15.616
1015.528,-0.976,7.32
1011.624,25.864,-2.928
1024.312,-7.32,-6.832
1011.624,-8.784,-0.0
1024.312,-26.84,-0.0
982.344,-10.248,22.936
1018.456,-12.2,2.44
1024.312,-5.856,2.44
1000.888,9.272,7.32
961.36,24.4,22.448
998.448,7.32,9.272
971.12,-19.032,18.056
1001.864,13.664,2.44
1007.232,13.176,-3.416
985.272,-0.488,-6.832
1022.848,0.976,-11.712
978.928,-9.76,7.808
992.592,-22.448,8.296
1008.208,-16.592,-3.904
991.128,13.664,-1.952
993.08,-7.808,-4.88
1006.256,10.736,-19.52
1018.456,4.88,-10.736
1004.792,-14.152,-2.44
984.784,-5.856,-6.832
999.424,19.032,-11.224
994.056,-10.248,0.488
1010.16,-12.688,0.488
996.984,-4.88,-1.464
987.712,-18.056,19.52
994.544,-33.672,20.008
1094.096,-33.672,-6.344
1325.896,-65.88,-70.272
1592.832,-157.624,-135.664
2059.36,-150.792,-231.312
2172.088,258.152,-755.424
1720.688,-904.752,-336.72
1269.288,-890.6,-315.248
1091.168,-464.088,-283.528
-162.504,-296.704,-20.496
-1363.472,100.04,185.44
-2338.496,694.424,361.608
-1860.256,929.152,283.04
-988.2,865.224,322.08
217.16,672.952,109.8
11.224,32.696,149.328
-653.432,584.136,523.624
-680.272,727.12,622.688
-494.832,648.064,556.32
-492.88,615.856,507.032
-855.952,592.92,476.288
-1413.248,620.248,521.672
-1387.872,759.816,517.28
-917.928,795.928,422.608
-550.464,730.536,458.232
-639.28,637.328,474.824
-1073.112,507.52,482.144
-1798.768,421.144,627.08
-2169.648,282.552,597.312
-2168.672,-187.392,279.136
-1340.048,-720.288,-1.952
-403.576,-1506.944,-338.672
799.344,-2093.032,-300.12
3315.472,-788.608,-1555.744
2874.32,167.384,-1044.808
1690.432,-147.376,-355.752
1270.752,-272.304,-152.744
1554.768,-60.512,-285.968
1347.856,82.472,-201.056
1083.848,154.208,-52.704
1019.92,200.08,-37.088
1044.808,18.056,-111.264
1272.704,3.416,-219.112
1066.28,75.152,-111.752
801.296,165.432,-27.328
854.976,204.96,-76.128
933.056,164.456,-135.176
968.192,95.648,-153.72
991.128,54.656,-178.608
989.664,59.048,-133.224
1038.952,56.608,-146.4
981.856,77.592,-102.968
1049.688,47.824,-140.544
1119.96,-0.976,-154.208
768.6,-76.128,-57.584
1102.88,33.672,-147.376
954.04,67.832,-90.28
955.016,59.048,-94.672
913.048,44.408,-97.112
1022.36,0.976,-141.52
1009.184,4.392,-142.984
1036.512,31.72,-153.72
987.224,51.728,-128.832
985.76,26.84,-113.704
995.032,41.48,-135.176
1003.328,38.552,-131.76
1019.432,20.984,-135.664
962.824,27.816,-126.392
990.152,22.448,-120.048
919.392,1.952,-100.04
980.392,13.664,-119.072
1000.4,15.616,-129.32
1011.624,30.744,-140.544
1010.16,15.128,-136.152
975.512,-14.152,-99.552
981.368,-0.0,-88.816
1002.84,20.008,-132.736
1042.856,4.392,-123.952
973.072,47.824,-113.704
1001.376,6.344,-107.848
950.136,-11.224,-95.648
1024.8,-70.272,-121.024
976.976,-61.488,-105.408
963.312,28.792,-122.0
940.376,31.232,-109.312
991.616,23.424,-121.512
952.088,19.52,-118.584
979.416,12.2,-118.096
1001.376,14.64,-131.76
984.784,8.784,-123.464
993.568,17.08,-131.76
1002.352,-81.008,-173.728
991.128,293.776,-105.408
1001.376,21.96,-117.608
977.464,32.696,-123.464
1000.888,325.008,-118.096
1004.304,21.472,-135.664
1004.792,-15.616,-127.368
958.92,-10.248,-105.896
1010.16,-60.512,-117.12
1005.28,-24.888,-126.392
1006.256,-50.752,-119.072
1033.584,-44.896,-135.176
992.104,-44.896,-119.56
1001.376,30.256,-132.248
972.584,6.832,-122.0
1025.776,15.616,-144.448
964.776,16.104,-135.664
1007.232,-13.176,-141.032
962.824,-17.08,-118.096
997.472,7.808,-136.152
976.976,1.464,-141.52
992.592,54.168,-201.056
1015.528,32.208,-157.136
973.072,51.24,-137.616
953.552,-14.152,-136.152
984.784,-68.808,-104.432
984.784,-117.608,-113.216
1001.864,-86.864,-124.44
991.616,-74.176,-106.384
1034.072,-6.832,-130.296
980.392,2.928,-112.728
997.96,13.176,-123.952
975.512,12.688,-135.664
990.152,15.128,-138.592
958.432,-5.368,-127.856
946.232,-1.952,-107.36
969.656,5.856,-117.12
974.536,-6.832,-117.608
994.056,2.928,-125.416
1004.792,-18.544,-131.272
1147.288,-19.032,-195.2
1320.528,-75.64,-252.296
1625.04,-285.968,-366.976
2112.064,691.008,-770.552
2624.464,240.584,-885.232
1564.528,-563.152,-484.096
1255.624,-674.904,-209.84
587.064,-219.112,-149.328
-281.088,202.52,32.696
-755.912,278.16,125.416
-1791.936,-239.12,355.752
-2074.0,-136.152,634.888
-1190.232,222.04,485.56
-707.6,376.248,508.984
-278.16,622.688,441.152
-248.392,1023.824,331.84
-204.472,1150.704,297.192
-350.872,995.52,373.808
-703.696,658.8,463.6
-885.72,554.368,492.392
-931.104,632.448,487.512
-785.68,638.304,422.608
-704.184,801.296,348.92
-663.192,819.352,329.888
-755.424,640.256,380.64
-985.76,563.64,431.392
-1309.792,385.52,517.768
-1216.096,752.496,469.944
-1426.912,806.664,433.344
-1042.368,893.528,209.84
-837.896,746.152,28.304
-1098.976,-739.808,16.592
-252.784,-2561.512,-72.712
2292.136,-2050.576,-546.072
2380.464,-336.72,-934.52
1248.792,-370.392,-382.592
1947.12,-427.488,-465.064
1710.44,-150.792,-360.144
1718.736,10.736,-316.712
1431.792,-15.616,-201.056
1085.8,1.464,-96.624
999.424,-30.256,-97.112
946.72,-31.72,-85.4
884.256,7.32,-75.152
883.768,60.512,-89.792
946.72,53.192,-117.12
874.984,58.072,-85.888
967.216,26.84,-100.528
956.968,48.8,-105.896
1020.408,54.168,-149.328
918.416,52.704,-141.032
1072.136,9.272,-192.76
982.832,9.272,-164.456
995.52,17.568,-151.28
999.912,30.744,-140.544
1015.04,40.992,-156.16
997.472,46.848,-160.552
972.584,18.056,-127.856
988.688,-0.488,-117.12
988.688,17.08,-136.152
965.264,25.864,-138.592
941.352,42.456,-138.592
920.368,16.104,-125.904
1020.896,17.568,-164.944
996.984,12.688,-150.304
991.128,0.976,-133.224
958.432,6.832,-123.464
952.088,-8.296,-117.12
970.144,8.784,-132.736
1050.664,13.664,-150.792
1016.992,17.568,-144.448
994.544,-5.368,-130.784
981.856,-2.928,-133.224
999.912,-9.272,-133.712
991.128,5.368,-147.376
971.12,19.52,-140.544
982.832,-7.808,-143.472
990.64,-6.344,-147.864
977.464,-12.688,-137.616
976.0,-5.856,-136.64
974.048,7.32,-138.104
1018.456,4.88,-134.2
1016.504,-2.928,-137.128
988.688,-2.928,-128.344
1035.536,2.44,-157.624
988.2,-7.32,-139.08
955.992,-2.44,-118.096
1015.04,-3.416,-135.664
984.296,-6.832,-135.176
1017.48,-0.976,-149.328
1003.816,5.368,-146.4
964.288,-10.736,-124.44
966.728,-13.176,-123.464
1000.4,-2.928,-138.104
950.136,-12.688,-129.808
998.936,-5.856,-136.152
1009.672,-5.368,-131.76
995.032,-11.712,-122.976
983.32,-2.44,-130.296
1002.84,9.76,-141.032
959.408,-1.464,-131.272
956.48,1.952,-138.104
967.216,-7.32,-132.248
987.224,-10.248,-136.152
977.952,-4.392,-141.032
997.96,1.464,-143.96
1007.72,-4.392,-139.08
962.336,-11.224,-122.0
986.736,-13.176,-118.096
970.632,-8.296,-119.072
991.616,1.952,-134.688
1006.744,0.0,-149.328
997.96,-14.152,-134.688
987.224,-19.52,-136.152
1014.552,-7.808,-134.688
992.104,-6.344,-130.784
1006.744,-15.616,-134.2
976.0,-11.712,-130.296
1002.84,-4.88,-134.2
994.056,-15.128,-136.64
1012.6,-7.808,-135.664
982.832,-4.392,-128.832
992.592,-1.464,-134.688
994.056,-18.544,-129.808
991.616,0.976,-130.784
1003.328,-0.488,-135.176
981.368,-0.976,-126.88
992.592,1.952,-129.32
962.824,3.904,-122.976
965.264,-9.76,-124.928
984.296,0.976,-133.712
969.168,5.368,-134.2
993.08,-4.392,-136.152
979.416,-5.368,-136.152
1004.792,1.464,-137.616
990.64,9.76,-140.544
980.392,3.416,-132.736
957.456,1.464,-126.88
978.928,-9.272,-123.464
981.856,-1.464,-132.736
974.048,-3.416,-137.616
995.52,-7.808,-136.64
1006.256,-4.88,-137.128
997.472,-8.784,-134.688
999.912,1.464,-136.64
992.592,-7.32,-138.104
981.856,-33.672,-128.832
1149.728,-104.92,-187.88
1607.96,-232.288,-390.888
2411.696,-570.96,-607.56
2513.688,-45.872,-795.44
1956.392,23.424,-637.816
1837.808,-207.4,-508.008
813.496,-179.096,-243.024
276.208,91.744,-184.464
-345.504,83.448,-142.984
-1481.568,-113.216,373.808
-1827.072,-668.56,598.288
-1691.896,-259.128,630.984
-1411.784,-347.944,672.952
-1244.888,-48.312,684.176
-751.032,1167.784,435.296
-369.904,1582.096,305.488
-158.6,1295.152,331.352
-362.096,1015.528,432.856
-616.832,952.576,471.408
-603.656,956.48,337.208
-313.296,1014.064,145.912
-348.432,488.0,162.016
-81.984,-181.048,233.752
502.64,-151.28,42.456
992.104,-96.624,-176.168
1424.472,-203.984,-305.488
1757.288,-44.896,-353.312
1561.112,63.928,-167.384
1565.504,173.728,-133.712
1298.568,310.368,-78.568
1065.304,328.912,-45.384
968.192,312.32,-55.632
994.056,306.952,-86.864
895.48,268.888,-49.288
940.376,283.528,-75.152
900.36,275.232,-60.512
1038.952,291.336,-93.696
1027.728,297.192,-81.496
988.688,296.704,-68.808
942.816,303.048,-45.872
914.024,285.968,-39.04
1015.04,255.712,-104.432
1026.752,269.864,-134.2
967.704,268.4,-108.824
935.008,268.4,-79.056
969.168,267.424,-97.6
904.264,275.72,-83.448
972.096,267.912,-111.264
964.776,281.088,-109.8
947.208,244.488,-85.888
958.432,242.536,-85.4
980.88,248.88,-96.624
1020.408,249.368,-119.072
966.24,254.736,-98.088
951.112,257.176,-91.256
959.896,256.2,-93.208
938.424,248.392,-94.672
947.208,247.416,-103.456
965.264,245.952,-105.896
933.056,236.192,-95.16
949.16,230.824,-86.376
932.08,226.432,-83.448
969.656,225.944,-77.592
938.424,255.712,-81.008
997.96,232.288,-88.816
999.424,241.56,-102.48
971.12,222.528,-75.152
952.088,234.728,-75.64
988.2,222.528,-87.352
966.24,211.304,-74.176
1002.352,215.696,-83.936
962.336,208.864,-73.688
974.048,214.232,-82.96
981.368,215.208,-86.864
979.904,209.84,-89.304
980.392,199.104,-92.232
994.544,199.104,-104.432
960.872,212.768,-82.96
948.184,206.424,-72.224
934.52,207.888,-60.024
929.152,208.864,-59.048
967.704,226.92,-90.768
951.112,203.496,-78.568
973.56,192.272,-93.696
974.536,185.928,-87.352
984.784,196.664,-97.6
967.704,190.808,-86.864
984.784,183.0,-98.576
1000.4,181.048,-93.696
974.536,192.272,-79.544
994.056,184.952,-93.208
998.936,186.904,-100.04
998.448,179.584,-91.744
970.632,180.072,-87.352
1004.304,182.024,-97.6
982.832,176.656,-96.136
938.912,183.976,-73.2
983.32,187.88,-95.648
983.32,200.08,-98.088
979.416,192.272,-98.576
989.176,178.12,-98.088
980.88,185.928,-102.968
960.872,202.52,-86.376
969.168,210.816,-93.696
982.832,186.904,-97.6
977.464,200.568,-93.208
983.808,198.616,-82.96
1000.4,209.84,-93.208
977.464,189.832,-83.448
983.32,178.12,-71.248
954.528,182.024,-71.248
949.648,184.952,-75.152
943.304,196.664,-77.592
984.296,192.272,-87.352
996.496,176.168,-85.888
976.488,188.856,-90.768
962.824,193.736,-85.4
973.072,194.224,-94.672
948.184,181.536,-64.416
976.0,188.368,-82.472
987.224,185.44,-85.4
989.664,199.592,-92.232
957.456,180.072,-75.152
993.08,190.32,-85.888
975.512,181.536,-89.792
942.816,192.76,-87.352
956.968,199.592,-85.888
935.496,190.808,-79.544
952.576,170.8,-81.496
938.424,182.024,-75.64
947.208,186.416,-75.64
945.744,184.952,-58.56
1012.112,163.968,-33.184
1215.12,113.704,-84.424
1770.952,-98.088,-215.208
2583.96,-167.872,-534.848
2703.52,244.976,-728.096
2177.456,618.784,-698.816
2257.976,42.944,-722.24
1257.088,-365.512,-631.96
236.192,-370.392,-476.776
-988.2,-225.944,-347.456
-2429.752,-1186.816,12.2
-2945.568,-1094.584,493.856
-1939.312,-477.752,333.792
-1789.984,-971.12,556.808
-560.712,-383.08,354.776
-508.984,1096.048,212.28
-414.312,1904.176,181.048
-97.6,1997.384,196.176
-123.464,1392.264,299.144
-602.192,662.704,426.512
-887.672,232.288,480.192
-991.616,114.68,422.12
-858.392,392.84,288.896
-856.928,573.888,215.208
-665.144,809.592,183.976
-665.144,798.856,245.952
-643.672,688.568,321.592
-456.768,858.88,322.08
-669.536,746.64,375.76
-694.912,712.48,345.504
-836.92,605.12,369.904
-956.968,536.312,367.464
-1229.76,562.176,393.816
-1321.016,665.144,393.328
-1126.304,747.128,337.696
-927.2,799.344,260.104
-818.864,968.68,184.464
-824.232,1123.864,231.312
-661.24,456.768,184.952
-285.48,-327.936,131.272
289.872,-779.824,32.696
813.008,-327.936,-55.632
1181.448,100.528,-279.624
1013.088,-77.104,-143.96
1272.704,-234.728,-137.128
1439.6,-162.504,-229.848
1569.896,-107.36,-256.688
1598.688,-24.888,-252.784
1434.72,58.56,-194.224
1294.176,89.304,-135.664
1116.544,81.496,-92.72
1102.392,90.768,-107.848
976.976,89.304,-87.352
929.64,94.184,-79.056
988.688,110.288,-84.912
947.696,83.936,-78.08
952.576,74.176,-73.2
984.784,63.928,-77.592
971.608,81.984,-75.152
1079.944,87.352,-117.12
1079.944,78.08,-106.384
1071.16,54.168,-106.384
988.688,32.208,-78.08
1027.24,27.328,-89.792
978.928,32.208,-81.984
1002.84,36.6,-106.872
985.76,52.704,-96.136
997.472,73.688,-104.432
980.88,67.344,-100.04
1014.064,45.384,-91.744
975.512,33.672,-69.784
943.304,62.952,-101.504
953.064,64.416,-75.64
953.552,57.584,-72.712
1006.256,47.336,-79.056
967.216,51.24,-74.664
1021.872,58.072,-106.384
968.192,51.728,-84.912
974.536,37.088,-79.056
974.536,21.472,-83.448
997.472,29.28,-96.624
946.232,20.496,-67.344
1007.72,34.16,-90.768
1021.872,35.624,-96.136
978.928,22.448,-58.56
967.704,35.624,-47.336
959.408,32.208,-93.208
989.664,-49.776,-114.192
1059.936,-182.024,-110.288
1196.088,29.768,-156.648
902.312,108.824,-33.184
829.112,-26.352,60.024
1001.376,-7.808,-72.224
1086.776,-59.536,-81.984
975.512,-81.984,-54.168
979.904,-45.384,-44.408
1020.896,-57.584,-74.664
961.36,-53.192,-73.2
972.584,-49.776,-54.656
1012.112,-56.12,-38.552
983.808,-42.456,-41.968
997.96,2.44,-66.856
998.448,-24.4,-28.304
1042.856,-73.688,-49.288
1064.816,-69.296,-75.64
1023.336,-41.48,-60.024
1013.576,-34.648,-66.856
1015.528,-28.304,-79.056
989.176,-84.424,-68.32
952.088,-114.68,-40.504
925.248,-130.296,-27.816
926.224,-106.384,-41.968
950.136,-86.376,-45.384
942.816,-89.792,-38.552
936.96,-111.264,-26.352
932.08,-111.264,-7.808
989.664,-122.976,-26.84
999.912,-159.088,-51.24
987.712,-116.144,-37.088
1005.768,-140.056,-47.824
1030.168,-152.744,-61.976
997.472,-145.912,-66.856
1028.216,-134.2,-88.816
1033.584,-133.224,-89.304
1021.872,-112.24,-90.28
1000.4,-71.248,-83.448
995.032,-105.408,-84.424
987.224,-88.816,-89.792
1019.432,-106.384,-101.016
1002.84,-127.368,-90.28
977.464,-160.552,-69.296
937.936,-181.048,-40.016
1006.256,-180.56,-70.76
1012.112,-178.608,-71.248
1029.192,-161.04,-77.592
1027.728,-140.544,-52.704
1045.296,-178.12,11.712
1214.632,-177.632,4.88
1622.6,-266.448,-206.912
1971.032,-330.376,-423.584
1965.664,-154.696,-589.016
2039.352,-77.592,-1103.856
1438.136,1329.8,-901.336
1019.432,1339.072,-701.744
3132.472,37.576,-1110.2
1539.152,-592.92,-644.16
-34.648,-660.264,-640.744
-1884.656,-242.048,-348.432
-2283.84,222.528,20.496
-1518.656,112.728,59.536
-1188.768,-620.736,151.768
-1371.768,-925.736,508.496
-1134.6,-1233.664,768.112
-613.904,-219.112,413.336
-611.952,1049.2,-153.72
-660.752,1464.976,-157.624
-650.016,959.896,-16.104
-462.136,612.928,160.064
-534.848,308.904,287.432
-817.888,358.192,312.808
-681.248,836.432,-1.952
-709.064,1310.768,-139.568
-1035.536,886.208,7.32
-1024.8,378.2,124.928
-1024.8,375.272,203.008
-890.112,562.176,152.744
-886.208,584.136,122.488
-732.488,667.096,48.8
-776.896,634.4,80.032
-820.816,554.856,116.144
-691.496,664.168,81.008
-719.312,654.896,66.856
-740.784,700.768,70.76
-976.488,576.816,144.448
-957.456,537.776,155.184
-896.456,580.232,128.344
-930.616,684.664,103.456
-1098.976,837.896,77.592
-1319.064,1033.096,94.672
-1884.656,879.864,191.784
-1959.32,668.56,88.328
-1565.992,1161.928,-307.44
-1377.624,609.512,-391.864
-1362.008,-971.12,-253.76
-430.416,-2246.752,-151.768
781.288,-0.976,305.976
364.048,-387.472,-44.408
700.28,-735.904,345.992
1201.944,-895.48,81.008
1451.8,-655.872,-35.136
1651.392,-612.44,-147.864
1712.392,-406.504,-177.632
1634.312,-138.592,-217.16
1264.896,-190.808,-42.944
1156.56,-296.704,23.424
1094.584,-280.112,19.032
1148.264,-230.824,-42.456
1162.904,-168.848,-9.76
1073.112,-162.992,2.44
931.592,-102.968,39.528
1052.128,-122.976,-26.352
1157.536,-83.936,-82.96
1196.576,-131.76,-118.584
949.648,-142.496,-40.992
976.488,-94.184,-61.976
1009.184,-123.464,-64.416
1098.0,-138.592,-91.256
1844.64,-144.936,-391.376
2826.008,-476.288,-672.464
2457.08,-1231.224,-873.032
1490.84,-948.184,-804.712
460.672,161.04,-82.472
851.56,-441.152,-172.264
301.584,-489.952,-6.832
-780.312,-443.104,223.016
-1128.744,-434.32,399.184
-2038.864,-152.256,662.216
-1691.896,111.264,427.976
-1416.664,71.248,412.848
-1458.144,386.008,501.664
-1132.16,663.68,477.752
-721.752,926.224,380.64
-583.16,949.648,360.632
-577.792,948.672,373.808
-631.472,730.048,411.872
-841.312,495.32,475.8
-1040.904,216.184,526.552
-1384.456,304.512,523.136
-1979.328,781.288,532.408
-2307.752,1099.952,451.4
-1959.808,1131.184,52.216
-1714.832,600.24,-324.032
-1778.76,-1342.488,-247.904
-1090.68,-4412.496,-88.816
1443.504,-528.504,248.392
1523.048,-939.4,-1029.68
671.0,-859.368,-172.752
1845.616,-1826.096,-504.592
1721.176,-1861.232,-277.184
1984.696,-1148.752,-254.736
1804.136,-402.6,-251.32
1499.624,129.808,-281.088
872.056,37.088,-47.336
858.392,-53.192,-27.816
846.68,-150.304,-62.952
897.92,-261.08,-66.368
796.904,-293.288,-45.872
782.264,-206.424,-43.92
830.088,-121.512,-73.688
1020.896,-58.56,-162.016
1013.088,-160.064,-149.816
1022.36,-174.704,-142.984
980.392,-180.072,-108.824
932.08,-129.32,-96.136
977.464,-118.584,-112.24
955.992,-94.184,-95.16
965.752,-121.024,-101.504
952.576,-157.136,-126.88
1004.304,-208.376,-105.408
983.808,-179.096,-123.952
1052.616,-52.216,-175.68
1052.128,-160.064,-138.592
992.592,-156.16,-123.464
991.128,-134.2,-126.392
1008.208,-154.696,-117.608
978.928,-148.352,-122.976
1004.304,-120.048,-125.904
1001.376,-123.464,-113.216
984.296,-106.872,-119.56
953.552,-144.936,-101.016
978.44,-154.696,-102.48
970.144,-133.712,-102.48
1004.792,-68.808,-133.712
1023.336,-122.488,-128.344
988.2,-126.88,-117.608
989.176,-144.936,-110.776
1003.328,-122.488,-119.56
970.144,-144.448,-96.136
1003.816,-81.984,-134.2
966.728,-90.768,-7.32
1054.08,-170.8,-128.832
1030.168,-225.944,-110.776
1012.112,-187.392,-86.864
1004.304,-162.504,-101.504
1052.128,-77.592,-101.504
1042.856,-54.656,-103.944
1011.624,-8.296,-101.992
976.0,-7.32,-86.864
966.24,40.016,-93.696
986.736,81.008,-107.36
951.112,89.792,-66.368
994.544,81.008,-89.304
983.32,59.048,-82.96
983.32,169.824,-90.768
965.264,140.544,-71.248
939.4,155.672,-55.632
918.416,129.808,-52.704
924.76,205.448,-63.44
915.0,163.48,-36.112
942.328,179.584,-56.608
921.344,137.616,-44.896
932.568,179.096,-20.008
959.896,174.704,-41.48
956.968,215.208,-50.752
978.928,208.376,-61.0
997.96,243.024,-65.392
1006.256,221.064,-44.896
1007.232,163.48,-31.232
997.472,120.048,-36.112
941.84,144.936,-30.256
976.488,69.296,-9.272
971.608,18.544,-35.136
998.936,106.384,-24.888
1012.6,126.88,-18.056
1047.248,177.632,-39.528
1031.632,239.608,-49.288
1049.688,321.104,33.184
995.52,183.488,-4.88
962.336,162.504,-4.392
1127.768,46.36,-86.376
849.12,249.368,-4.88
935.496,308.904,13.176
978.928,221.064,-9.272
976.0,203.008,1.952
1004.304,137.128,17.568
995.032,107.848,24.4
982.344,9.76,76.616
962.824,227.896,16.104
1016.992,245.952,-16.104
996.496,257.664,18.544
971.12,73.2,28.792
1019.92,150.304,12.2
992.592,101.016,48.8
965.264,126.88,14.64
968.192,143.472,6.832
937.936,158.112,9.272
996.984,101.016,-1.464
976.488,168.36,-12.688
1000.4,241.56,-13.664
967.704,218.136,17.08
999.912,89.792,21.472
963.8,128.344,3.904
1037.976,116.632,-3.904
1020.408,105.896,2.928
1018.456,198.616,3.904
980.392,164.944,26.352
977.952,154.696,28.792
947.208,137.128,45.384
968.68,161.04,17.568
945.256,165.92,69.296
1027.728,165.92,11.712
1022.848,123.952,20.496
967.216,133.712,40.016
955.992,15.616,89.304
976.0,185.44,-5.856
1017.48,262.056,-39.04
1005.28,110.288,41.968
951.6,184.464,27.328
981.856,137.616,33.672
969.656,118.584,40.504
945.744,178.608,18.056
1017.48,130.296,-11.712
1015.528,127.368,26.352
1064.328,134.688,20.008
1078.48,129.32,-4.88
1045.296,96.624,14.152
999.912,173.24,23.424
972.096,170.312,20.984
955.992,211.304,48.8
937.936,180.56,65.392
948.672,188.856,68.808
948.184,194.224,66.368
978.928,184.952,61.488
971.12,156.16,73.2
971.608,178.608,61.976
933.056,177.144,60.512
947.696,185.928,69.296
1024.312,234.24,45.384
1001.864,205.448,44.896
987.712,121.512,92.232
1000.888,188.368,46.36
1006.256,161.04,80.52
1015.04,185.44,46.848
962.336,238.144,61.0
955.504,220.576,73.688
1025.776,206.912,65.88
932.568,240.584,58.072
1049.688,231.8,71.248
1154.608,323.056,14.64
1106.784,377.712,15.616
951.6,156.648,240.096
1001.376,92.232,79.056
786.656,115.168,156.16
377.224,69.296,191.784
-375.272,-574.864,36.112
-309.392,88.328,-60.512
639.28,208.376,-1189.256
-812.032,157.136,-234.24
-1291.736,46.36,-1359.568
-345.504,367.952,-2502.464
-136.152,43.432,-1826.096
661.24,-244.0,-2426.824
-246.44,355.752,-1783.152
168.848,-30.744,-1180.472
-1369.816,29.768,-572.912
-1122.4,142.008,-837.408
-334.28,164.456,-974.536
-136.64,189.832,-932.08
-238.144,147.376,-857.904
-641.232,31.232,-850.096
-920.368,61.976,-723.704
-491.904,5.368,-701.744
-429.44,44.408,-784.216
-508.008,71.736,-863.272
-521.672,69.784,-862.296
-264.496,141.032,-1088.24
14.64,139.08,-1224.88
139.568,217.16,-1302.472
540.704,241.56,-1528.416
741.76,260.592,-1934.432
373.32,223.992,-2323.368
-548.024,132.248,-1654.32
-488.976,209.84,-1101.904
73.2,124.928,-554.368
168.36,129.32,-129.808
392.84,170.8,1.952
384.056,162.504,99.552
620.736,220.088,18.544
990.152,169.824,3.416
1139.48,176.656,-60.024
1065.792,154.208,31.232
1075.552,170.8,-22.936
1007.72,159.576,70.76
1009.672,170.8,85.888
1042.368,152.744,164.456
1010.648,142.008,173.24
984.296,195.688,76.616
1035.048,193.736,56.12
981.856,164.944,130.296
1018.456,160.064,108.824
1014.064,143.472,147.376
967.216,138.592,167.384
938.424,170.8,127.856
953.064,176.656,91.256
970.632,171.288,89.304
981.856,158.6,74.176
996.008,167.872,71.736
996.496,154.696,79.056
941.352,161.528,105.408
930.616,160.064,132.736
1001.376,218.624,-5.856
1073.112,174.216,14.152
1037.976,185.928,19.52
1009.672,185.928,24.4
936.96,143.472,138.592
997.472,173.24,79.056
982.832,182.024,64.416
978.928,165.92,80.52
934.52,178.608,83.936
961.848,184.464,73.2
958.92,188.368,64.904
1008.696,191.784,50.752
993.08,197.64,54.656
983.32,196.664,78.08
959.408,204.96,103.456
935.984,195.2,119.072
927.2,176.656,119.56
872.544,168.36,128.344
850.584,188.368,117.12
931.104,202.52,79.056
976.0,198.616,48.312
942.816,185.928,25.376
914.512,215.208,28.792
964.776,198.616,-12.688
1015.04,214.72,-58.072
972.584,164.944,-46.848
961.848,203.984,-68.808
1003.328,189.832,-94.184
1028.704,212.28,-107.848
1133.136,205.448,-115.168
1122.888,195.2,-129.32
1009.184,186.904,-111.752
948.672,203.008,-108.336
972.096,135.664,-71.248
1053.592,67.344,-85.888
1042.856,11.224,-88.328
955.504,79.544,-49.776
945.256,201.056,-46.848
1000.4,79.056,-78.568
1047.248,203.008,-45.872
831.064,261.08,5.856
820.328,158.6,4.392
1012.112,110.776,-88.328
1039.928,142.496,-124.44
938.424,186.904,-82.96
894.504,200.568,-55.632
995.032,151.28,-108.824
1073.6,156.16,-136.152
1060.912,118.584,-159.576
952.576,183.488,-149.328
946.72,139.08,-143.472
962.824,176.168,-150.792
960.872,193.248,-133.224
957.456,193.736,-144.448
968.192,186.416,-162.016
951.6,179.096,-154.696
979.416,183.488,-162.016
970.144,185.44,-183.976
989.176,178.608,-168.36
953.064,176.656,-163.48
963.8,180.072,-165.432
1008.208,222.528,-162.992
923.296,194.224,-149.816
932.08,162.992,-144.936
971.12,180.072,-170.8
1011.624,123.952,-223.992
1033.584,149.816,-203.984
1090.192,151.768,-195.688
1318.088,209.84,-212.28
1360.056,50.264,-244.488
1158.024,31.232,-229.848
1733.864,102.968,-485.072
2114.016,46.848,-773.48
1905.64,209.84,-1678.72
-852.048,629.032,-2419.016
1177.544,-343.552,-387.472
-1236.104,282.064,-143.472
-2951.912,38.552,562.176
-599.752,586.576,-1306.864
-528.504,-395.28,1633.336
-2077.904,8.784,961.848
-373.808,-7.808,424.56
-1032.12,75.64,661.728
-1053.104,24.888,872.544
-771.528,1.464,1075.064
-680.76,14.152,1259.04
-537.288,113.216,878.4
-445.544,132.248,835.456
-369.904,73.2,940.864
-304.024,73.688,929.152
-388.936,36.6,1017.968
-609.024,44.408,887.184
-629.032,82.472,625.616
-685.152,64.416,725.656
-549.0,27.816,840.824
-651.968,31.232,844.24
-673.928,41.968,769.576
-559.736,55.632,761.28
-550.464,44.408,842.288
-413.336,61.976,774.456
-499.712,45.384,816.424
-554.368,42.456,792.512
-657.336,21.472,895.968
-746.152,14.64,877.912
-876.448,17.568,938.912
-1021.384,7.808,1061.888
-759.816,69.296,1019.432
-690.032,-12.688,1202.432
-378.688,-35.136,875.472
-123.464,103.944,31.232
335.256,116.144,-179.096
705.648,187.88,-136.152
1239.52,-132.736,487.024
1013.576,-0.488,86.376
1089.216,5.856,-435.784
1163.88,3.904,-671.976
1088.24,-38.552,-506.544
1086.776,-0.0,-504.592
996.008,66.856,-525.576
1118.984,27.328,-317.688
1081.408,41.48,-157.136
961.848,41.48,-37.088
931.592,43.92,-44.896
930.128,43.432,-67.832
964.776,47.336,-83.936
1029.68,15.128,-20.984
1005.768,4.392,40.504
993.568,-5.368,13.664
926.224,32.208,-74.176
995.032,19.52,-50.752
960.872,12.688,-84.424
1016.504,28.792,-177.632
929.64,33.672,-225.456
1038.464,33.672,-192.272
1029.68,31.72,-148.84
1014.064,32.696,-180.072
992.592,23.424,-151.28
978.928,46.36,-211.792
1052.128,22.448,-139.568
1005.28,39.528,-183.0
1008.208,49.776,-205.936
964.776,53.192,-225.944
934.52,42.944,-183.488
984.296,39.528,-170.312
966.728,50.752,-244.488
995.52,43.92,-234.728
991.128,47.336,-215.208
955.992,58.56,-238.144
957.456,54.168,-194.224
956.968,51.24,-209.84
959.408,52.704,-206.424
988.2,37.576,-165.92
946.72,49.288,-165.432
999.424,52.216,-166.896
949.16,49.776,-133.712
936.96,69.784,-272.792
968.68,50.264,-242.048
930.128,59.048,-239.12
968.192,55.144,-163.968
985.76,42.944,-90.768
964.288,61.0,-200.568
957.944,87.352,-282.552
955.016,62.952,-225.456
948.184,67.832,-216.672
956.48,69.296,-174.216
1007.232,67.832,-132.248
1012.112,51.728,-145.912
1008.208,73.2,-205.936
974.536,70.76,-148.84
966.728,75.152,-118.584
1158.024,64.904,-167.384
1011.624,79.056,-124.44
1083.36,81.496,-130.296
983.808,117.12,-164.944
984.784,153.232,-106.384
889.624,64.416,39.528
985.76,64.904,-45.872
978.928,192.272,142.008
959.896,91.256,27.816
918.416,134.2,15.128
952.088,132.736,28.792
1055.544,123.952,-24.4
1045.784,74.664,-40.992
1068.72,7.32,47.824
1191.208,391.864,-14.152
846.192,49.288,35.624
1001.864,194.712,-2.44
829.6,142.496,46.848
1053.592,-78.568,-27.816
986.736,68.808,3.904
1042.856,96.624,-42.456
1010.16,136.152,-31.72
1051.152,256.2,-42.456
964.776,24.888,-31.72
907.192,37.576,16.104
960.384,100.04,-4.392
1003.816,96.136,-3.416
1037.0,124.44,-20.496
1018.944,145.424,-11.712
988.688,89.304,-16.592
1008.696,61.0,-18.056
949.648,30.256,39.528
943.304,50.264,50.264
1000.4,147.376,56.608
929.64,131.76,70.76
956.48,67.832,28.304
994.056,38.552,13.176
995.52,50.264,7.808
1005.28,88.328,7.808
977.952,46.36,12.2
992.592,39.04,0.976
994.544,68.808,-1.952
1000.4,41.48,-2.928
979.416,21.96,-2.928
1016.504,35.624,-3.416
1002.84,49.776,5.856
998.448,42.456,8.296
957.456,50.752,5.368
978.928,48.312,-2.928
1005.768,53.192,-13.664
1010.16,58.56,-18.544
1037.488,64.416,-27.328
982.832,40.992,-12.2
1013.576,39.04,-6.832
1025.776,9.272,-16.592
1049.688,15.616,-34.16
1026.752,1.464,-16.592
1028.216,13.664,-5.856
1002.352,-0.488,-6.344
1008.696,24.4,5.368
1014.064,54.168,-6.344
998.936,57.096,11.712
977.952,52.704,6.344
1019.432,41.48,4.392
1019.92,11.712,-0.488
980.392,-19.032,14.152
993.568,24.888,27.816
1006.256,15.616,10.736
984.784,6.344,2.928
981.856,-9.76,6.832
985.76,2.928,-0.0
985.76,6.344,0.488
987.224,-13.664,-8.296
987.712,8.296,-7.32
990.64,4.88,-2.44
985.272,-8.296,1.464
984.296,-10.736,-1.464
1002.84,-11.712,-3.904
1005.28,-18.056,0.976
1007.232,-21.96,-3.416
1015.04,5.856,-7.808
993.08,-8.784,-6.832
1018.944,-11.712,-13.176
996.496,14.152,7.32
965.264,-9.272,23.424
975.512,-44.408,16.104
992.104,-17.08,17.08
994.544,0.976,15.128
999.424,-5.368,20.496
1018.456,-23.912,13.176
1005.768,-59.536,-0.488
1029.68,-26.352,-3.904
1030.168,-12.688,-1.952
1020.896,-3.904,-2.44
1064.328,-2.928,-19.032
994.544,-8.296,-2.44
970.632,-17.568,-2.928
1002.84,18.544,-7.808
1012.112,-2.928,-5.368
1010.16,4.88,-2.928
1013.088,-12.688,-12.688
1011.624,2.44,-2.928
1003.816,-3.416,8.296
1001.376,28.792,10.736
967.704,-9.76,31.232
969.168,-30.256,27.816
1003.816,-4.88,23.424
1023.336,17.08,16.592
1012.6,42.456,19.032
993.568,-13.664,22.448
992.104,-31.232,27.328
969.168,-42.944,32.696
1017.48,-32.696,22.448
999.912,-1.952,18.056
1010.16,-14.64,20.496
1006.744,-39.528,18.056
984.784,-47.336,23.424
991.128,-13.176,22.936
983.32,-12.688,21.96
1023.336,1.464,8.784
1016.992,-13.664,1.952
998.448,-15.128,13.176
976.0,-1.464,28.304
974.048,-0.488,31.232
996.496,6.832,25.864
997.96,-7.808,25.376
1003.816,-0.488,25.864
986.248,-14.64,29.768
995.52,-25.376,32.696
992.104,-11.712,25.864
998.448,0.976,30.744
1007.232,-1.464,27.328
985.76,8.296,37.088
1010.16,-15.616,32.696
971.12,-14.152,43.92
1010.648,-27.816,33.184
1007.72,-20.008,27.328
997.96,-8.296,28.304
1012.6,-13.664,30.744
976.488,-19.52,33.184
989.664,-21.96,35.136
1004.304,-10.248,30.744
995.032,7.808,36.112
1013.088,-4.392,26.352
1000.4,6.344,33.184
1001.864,-10.248,37.576
1020.896,-23.424,30.256
1003.816,-27.328,40.992
999.424,-17.08,38.552
1008.208,-3.416,43.432
999.912,-16.104,35.136
988.688,-35.624,37.576
983.808,-18.544,38.552
995.032,7.32,44.408
973.56,3.904,46.848
972.096,1.952,45.384
979.416,12.2,40.992
988.688,-0.976,40.992
1009.672,-15.616,31.232
1006.256,-25.864,32.696
995.52,-13.664,31.232
1002.84,-0.488,29.28
995.032,-0.0,28.792
994.056,0.0,30.744
1008.696,0.976,23.912
1029.192,-16.592,16.104
1019.432,-8.296,13.664
1021.384,4.392,12.688
1005.768,-1.952,18.544
982.344,0.488,31.232
974.048,9.272,35.136
977.464,-0.488,35.624
993.568,-5.856,31.232
1010.648,15.616,30.256
1006.256,3.904,29.768
1044.32,18.056,7.808
1028.216,-2.928,11.224
1039.928,-16.592,11.224
994.544,-8.784,37.088
1035.536,-20.984,12.2
984.784,-39.528,30.744
980.88,-29.768,37.576
959.408,-6.832,45.872
959.896,-10.736,44.896
978.928,8.784,44.408
970.144,-16.592,55.144
986.736,-10.736,54.168
998.448,-23.424,48.312
993.568,-33.672,47.824
1016.992,-29.768,42.944
1017.48,-35.624,33.184
1016.016,-27.328,34.648
1034.56,1.464,26.84
1016.992,-12.688,17.568
1026.264,3.904,15.128
1006.744,-15.616,17.08
1006.256,5.368,8.296
996.496,18.056,10.248
968.192,-6.344,22.448
989.664,-5.368,16.104
964.776,-5.856,23.424
992.592,0.0,22.936
1000.4,16.104,19.52
978.928,0.976,28.792
1002.84,6.832,23.424
988.2,14.152,27.328
1015.528,11.224,14.64
1002.84,-2.44,20.496
1016.992,-16.104,22.936
999.424,-19.032,26.84
984.784,-8.784,36.112
996.008,-14.152,32.696
996.984,-18.544,33.184
951.6,-0.976,57.584
993.08,-33.672,40.992
995.032,-20.984,38.552
1012.112,-16.592,41.48
1013.088,-9.76,40.016
999.912,-29.768,37.088
1010.16,-37.576,38.064
1005.28,-32.208,31.72
1002.352,-17.568,38.064
979.904,-11.224,45.384
982.344,-23.912,35.136
1010.648,-9.272,31.72
1014.552,-19.032,25.864
1008.208,-21.96,29.768
1013.088,-36.6,29.28
1001.376,-28.792,28.792
976.0,-14.64,34.648
996.496,0.488,23.424
1001.864,-10.736,22.936
1009.184,6.832,15.128
999.912,16.104,22.936
1011.624,-6.344,18.544
1005.768,-15.616,13.664
994.544,-5.368,17.568
989.664,10.736,19.52
970.144,4.392,22.936
967.216,10.736,32.208
980.392,-5.856,31.232
991.616,-31.72,29.768
995.52,-27.816,22.936
987.224,-16.104,33.184
990.152,-13.664,27.328
990.152,-4.88,24.888
1002.84,-13.664,28.792
988.2,-18.056,27.816
1011.136,-2.44,25.864
992.104,25.864,22.448
1015.528,-2.928,23.912
997.472,-8.296,32.696
997.96,-9.76,28.304
1018.456,-1.952,23.912
1016.992,-18.056,25.376
1032.608,-29.768,23.424
1017.968,-20.496,28.792
1006.744,-14.152,34.16
975.024,-10.248,37.088
991.616,1.952,32.208
997.96,1.952,28.792
1000.4,-27.816,26.84
994.544,-41.48,32.696
997.96,-32.696,39.04
961.36,-27.328,54.656
1006.744,-27.816,45.384
1024.8,-18.544,32.696
1034.56,-21.96,31.232
1028.704,-16.104,30.256
992.592,-19.032,40.504
1000.4,-16.592,34.648
1013.088,-32.208,31.72
999.424,-59.048,30.744
995.52,-42.944,40.016
990.64,-28.792,31.72
1002.352,-29.768,17.08
988.688,-40.016,31.232
1015.528,-37.576,17.08
983.32,-29.768,28.792
