acc_x[mg],acc_y[mg],acc_z[mg],gyro_x[mdps],gyro_y[mdps],gyro_z[mdps]
0.748,-9.556,937.549,-181.303,198.741,394.026
-2.743,-11.669,1025.185,-171.492,362.932,427.527
-1.100,-7.245,985.252,-276.005,227.703,417.046
-4.692,-7.237,1008.657,-163.450,279.017,420.773
-1.181,-9.158,996.660,-166.106,327.652,420.656
-3.689,-10.232,1007.366,-324.569,260.086,418.121
0.311,-3.486,991.724,-299.958,241.179,422.674
-2.134,-11.086,1001.268,-262.291,242.181,419.331
-6.244,-9.504,997.386,-221.410,164.767,510.984
-0.010,-5.051,1005.003,-300.484,184.962,429.788
-1.149,-5.863,994.925,-204.219,160.808,360.981
-0.107,-10.927,1002.477,-155.088,231.267,493.172
-0.502,-7.612,1001.467,-346.814,192.260,328.137
-1.574,-8.619,1001.691,-397.863,230.765,248.762
-0.945,-8.559,997.448,-291.663,261.747,336.431
-1.437,-4.648,1005.725,-249.410,318.323,471.852
1.308,-9.796,1001.742,-230.890,316.709,427.087
-3.036,-6.939,997.434,-329.108,279.995,327.949
-0.366,-6.573,996.573,-359.480,228.848,410.441
-1.726,-7.433,1004.934,-283.412,204.797,417.520
-1.054,-10.030,1005.028,-283.089,218.208,360.763
-4.252,-10.704,996.074,-273.526,378.624,418.000
-3.749,-9.604,997.548,-291.797,277.235,446.831
-3.757,-10.916,999.740,-238.095,268.013,470.211
-3.136,-8.738,997.357,-207.431,375.431,398.662
-1.269,-10.223,996.928,-206.120,336.890,388.604
-0.673,-8.255,998.907,-222.962,228.318,435.066
-2.696,-10.381,1004.368,-346.361,127.651,410.035
-2.331,-9.394,991.160,-360.758,257.056,427.577
-2.074,-8.575,997.908,-312.100,242.083,413.650
0.075,-9.492,1003.569,-282.282,237.779,425.833
-2.128,-9.443,1005.881,-225.743,347.149,413.882
0.064,-7.701,993.889,-212.513,233.658,427.639
-3.270,-7.459,1000.842,-262.740,260.725,405.007
-0.813,-8.174,1003.379,-241.072,223.253,363.414
-3.658,-5.518,1000.776,-349.359,294.574,430.022
-3.358,-8.579,999.019,-225.615,240.855,413.132
-1.353,-9.443,997.354,-207.688,199.440,428.125
-2.538,-8.874,1000.437,-263.321,267.964,361.785
-0.775,-8.519,993.265,-287.353,284.467,344.518
-3.186,-6.808,997.658,-279.417,190.665,361.792
0.619,-8.993,1000.900,-387.036,142.284,427.928
4.220,-4.234,1002.091,-391.428,127.277,414.129
-1.077,-11.617,994.125,-370.089,221.088,425.721
-6.130,-8.576,1003.287,-453.501,300.274,413.617
-0.453,-8.496,1003.525,-269.313,265.609,427.611
1.767,-11.829,997.997,-248.112,294.050,409.759
2.649,-9.553,994.794,-307.265,255.575,435.770
1.305,-11.210,1000.659,-232.805,209.164,379.305
-0.671,-9.843,1002.605,-251.294,206.280,387.409
-2.054,-5.016,998.215,-239.821,245.972,385.170
-6.507,-5.611,999.749,-297.880,451.354,334.686
-2.707,-8.052,1001.262,-265.517,444.278,425.555
-3.057,-11.941,1004.585,-219.764,312.787,493.078
-0.606,-10.474,1000.033,-297.839,317.544,471.459
-0.712,-11.340,995.605,-230.050,295.421,408.559
-2.817,-9.286,998.662,-292.434,179.903,426.591
-3.515,-11.330,999.706,-277.599,320.170,416.806
-0.095,-6.663,995.753,-61.822,361.327,364.902
-5.443,-12.954,1000.471,-291.172,265.094,343.164
-0.153,-6.738,1004.930,-266.087,212.660,451.959
0.874,-5.036,1000.427,-296.771,217.859,467.574
0.469,-6.432,998.851,-236.012,327.270,404.514
-1.506,-7.732,995.781,-204.549,70.321,472.077
-5.800,-9.994,1002.496,-263.298,141.508,445.232
-2.073,-9.849,995.757,-286.597,371.370,398.710
-2.917,-8.632,1001.663,-110.281,323.453,374.584
-3.585,-9.061,1003.322,-95.483,294.353,396.146
1.578,-10.317,1006.136,-139.564,394.801,368.511
-3.729,-9.945,996.524,-176.297,359.352,441.655
0.987,-7.744,997.061,-265.347,150.886,358.482
3.421,-11.693,1000.951,-345.473,199.270,351.742
-1.583,-9.255,1000.656,-272.211,149.537,416.871
0.252,-8.465,1000.045,-218.170,214.771,422.409
-2.757,-8.037,1000.959,-295.403,207.764,417.589
-1.379,-6.092,1008.420,-264.670,208.185,422.397
-1.320,-10.446,996.506,-335.416,250.841,417.543
-2.752,-12.294,995.355,-299.532,294.900,422.264
1.061,-11.159,1004.303,-271.801,265.588,479.151
1.546,-5.572,1000.199,-366.817,299.551,414.809
-1.542,-12.272,998.051,-314.537,228.276,332.284
-0.686,-11.174,1002.744,-311.858,150.085,389.125
0.122,-11.536,1001.438,-322.026,267.394,422.400
2.875,-5.009,1000.413,-263.027,280.195,422.094
-1.751,-5.496,996.163,-237.257,278.024,414.301
0.250,-7.633,1000.597,-255.842,145.468,358.896
3.735,-8.124,999.331,-317.386,229.509,329.778
-5.934,-9.450,995.037,-314.603,289.989,274.697
2.242,-6.656,997.747,-313.662,246.116,302.011
0.543,-11.296,1003.579,-321.277,190.955,454.891
1.421,-6.697,1000.992,-207.944,328.282,496.910
-0.590,-6.969,1001.149,-215.654,356.120,427.776
-5.388,-4.851,999.324,-203.375,343.989,489.544
-0.446,-9.163,1000.604,-227.193,234.922,482.455
-1.228,-10.664,998.934,-319.724,138.268,366.527
2.365,-6.052,998.982,-325.963,288.307,397.167
-3.768,-10.820,1001.322,-208.043,164.054,373.179
-2.953,-7.238,1001.199,-278.768,256.038,398.936
-5.811,-7.127,998.882,-342.838,430.066,365.083
-3.838,-8.564,1001.538,-362.611,401.531,425.116
-0.143,-10.711,997.083,-312.898,340.422,395.926
-1.211,-8.196,1002.066,-312.743,361.395,335.854
0.609,-9.661,997.226,-322.913,298.883,397.139
-1.890,-10.474,998.238,-205.659,277.774,432.586
-3.093,-9.031,1005.068,-220.517,214.032,341.873
-1.519,-6.502,997.362,-276.309,213.861,460.424
1.144,-8.256,994.024,-283.616,186.957,524.635
2.750,-11.327,999.728,-277.154,153.481,405.020
2.039,-11.873,995.769,-279.831,266.335,388.629
0.518,-8.108,995.253,-325.040,283.364,376.118
-3.518,-9.549,997.421,-310.888,163.625,560.668
0.308,-11.638,1002.551,-239.969,203.408,483.017
-3.568,-11.262,1004.789,-178.367,390.050,498.378
-6.484,-8.701,1001.028,-280.663,251.913,480.632
-1.888,-6.631,994.602,-343.842,160.889,502.787
2.019,-11.660,999.636,-448.212,181.278,437.981
-3.787,-9.518,1000.154,-350.315,219.794,417.421
-0.866,-11.497,1001.444,-350.133,265.110,356.539
-4.283,-9.063,998.750,-281.050,213.248,346.159
-7.502,-10.436,1001.033,-367.806,216.474,363.217
3.045,-9.972,996.585,-333.632,336.228,465.202
-4.615,-9.093,996.901,-369.791,266.124,456.265
-3.412,-7.547,1001.717,-283.601,284.895,405.270
-3.297,-5.194,1000.639,-291.642,227.084,430.197
-3.958,-10.654,995.649,-251.758,325.691,342.831
-2.199,-9.926,998.243,-157.278,307.158,454.920
-0.981,-11.276,999.368,-208.577,320.519,462.988
-3.765,-7.916,999.771,-245.942,310.917,411.032
-2.922,-9.314,993.796,-287.331,319.432,461.713
-0.859,-10.125,994.434,-278.245,262.717,507.518
-4.619,-12.337,1002.079,-280.266,228.169,409.059
-3.768,-6.254,1001.751,-361.756,196.655,519.505
-1.072,-11.898,994.611,-320.011,223.399,420.558
2.029,-5.959,1006.865,-286.018,190.063,410.745
-0.499,-9.714,1003.092,-230.681,298.370,469.343
-3.173,-9.264,994.824,-258.724,322.173,400.453
-2.627,-6.993,1000.797,-226.895,195.271,486.024
-1.626,-8.805,996.713,-352.326,230.417,425.516
2.274,-9.868,1000.726,-403.236,180.093,407.235
-1.978,-9.720,993.158,-246.861,276.339,462.316
-1.023,-11.274,1001.531,-335.338,129.810,421.596
-0.928,-9.928,1002.446,-308.314,39.705,369.828
-3.117,-12.409,998.645,-216.738,348.288,446.883
2.334,-10.967,998.703,-271.323,209.334,393.109
-1.925,-12.211,998.913,-291.665,143.073,296.631
-1.625,-9.467,999.449,-360.569,245.515,366.987
-3.765,-7.886,995.800,-336.076,249.040,438.141
-2.983,-10.101,999.099,-401.269,239.788,397.599
1.327,-11.822,1002.170,-373.731,251.565,534.768
0.441,-9.133,999.285,-341.463,183.484,447.649
0.397,-11.987,1000.947,-279.687,311.023,339.666
-4.387,-9.810,997.279,-198.258,317.164,446.109
4.295,-10.810,997.233,-235.692,310.962,371.545
-0.382,-12.666,1004.517,-297.059,326.501,395.240
2.010,-9.766,997.957,-223.195,223.617,374.309
0.991,-11.363,1004.383,-263.251,204.367,398.085
1.438,-7.853,997.905,-222.360,281.531,426.811
-1.401,-6.376,994.328,-201.213,260.114,421.239
-3.945,-8.886,998.725,-239.365,118.742,398.122
-1.249,-12.337,998.919,-418.297,194.079,365.356
-0.980,-6.034,1001.435,-299.405,381.041,444.418
-2.667,-8.655,1004.490,-176.596,384.092,357.121
0.886,-6.124,1002.704,-347.518,274.362,298.431
-3.597,-10.383,997.956,-345.597,283.961,473.405
-2.605,-8.791,1000.535,-354.892,188.609,509.586
-0.668,-7.417,997.306,-344.624,252.912,430.229
-2.452,-8.550,1002.141,-357.829,244.413,363.470
-0.680,-8.610,998.683,-305.919,204.542,449.857
-3.605,-11.130,998.569,-218.182,207.133,341.514
-0.046,-11.014,999.548,-143.919,348.398,435.230
-3.949,-8.321,997.157,-141.482,405.435,463.726
-2.282,-7.815,998.805,-254.782,249.030,449.980
-0.219,-6.232,995.972,-390.914,176.177,457.884
-1.612,-8.073,1000.101,-433.929,164.140,453.496
-1.539,-5.213,997.634,-317.853,234.122,455.938
-1.635,-10.241,999.144,-263.277,188.344,401.240
0.648,-9.712,1001.952,-222.683,309.247,433.978
0.931,-9.259,999.245,-204.526,318.168,407.601
-4.047,-6.918,994.770,-339.415,298.209,432.623
3.047,-10.246,994.123,-246.163,194.864,403.496
-0.303,-6.976,1002.989,-104.083,206.236,478.081
-2.950,-8.702,997.698,-216.613,420.884,435.927
-0.713,-9.569,998.671,-198.702,213.291,414.701
-2.907,-8.900,998.826,-306.510,74.189,422.657
1.660,-7.469,995.781,-206.602,260.516,418.253
-0.178,-6.300,995.640,-70.772,241.792,421.361
-0.569,-11.947,998.828,-203.393,208.654,418.510
-0.911,-6.647,999.841,-204.320,244.168,422.122
-2.451,-10.192,1001.229,-217.254,480.683,415.083
-1.469,-9.159,998.874,-198.702,329.589,364.404
-1.589,-11.652,1004.619,-244.402,223.966,504.955
-4.627,-8.443,1001.837,-352.964,281.932,459.550
0.264,-11.621,998.035,-210.710,290.307,412.787
-2.422,-7.538,1000.995,-307.842,222.878,424.351
-0.346,-8.365,998.761,-311.192,267.443,415.293
-2.641,-9.377,1002.300,-133.407,278.340,429.037
-4.543,-12.388,997.857,-161.512,371.947,478.637
-0.440,-10.655,999.749,-313.968,286.010,415.376
0.352,-11.919,1000.928,-332.156,267.602,400.372
-1.043,-7.332,1001.216,-224.805,328.021,321.860
-0.865,-6.030,996.757,-209.990,308.586,464.649
-4.793,-7.874,1000.467,-208.901,371.265,493.281
-0.106,-9.689,1000.658,-282.125,331.896,488.815
-0.028,-5.309,1004.378,-275.210,277.922,391.992
-5.440,-7.957,1003.835,-289.055,292.434,371.499
-2.379,-6.905,999.637,-241.878,202.623,430.990
-1.652,-6.211,995.978,-202.539,201.177,414.467
-5.410,-10.075,999.236,-212.196,373.210,422.976
4.668,-6.922,999.175,-215.927,260.842,419.238
-0.755,-9.702,1001.490,-349.533,312.086,413.053
-2.655,-5.187,1001.481,-258.737,311.325,334.703
-4.203,-8.172,995.597,-324.283,163.988,386.644
0.803,-10.024,1001.445,-318.093,163.221,422.613
-2.088,-10.566,1000.044,-218.142,328.738,466.381
0.106,-7.557,999.607,-264.353,240.309,445.893
-1.593,-8.692,999.196,-221.392,183.237,397.485
-1.695,-7.640,998.853,-196.466,174.300,456.491
0.198,-8.180,999.205,-244.118,293.523,457.376
-5.691,-9.173,999.636,-277.337,277.053,425.283
1.697,-8.917,999.011,-328.722,241.659,366.182
-2.911,-9.831,1000.542,-303.862,193.943,403.875
-1.024,-7.958,996.737,-145.423,283.055,481.538
-1.508,-8.551,999.259,-293.253,115.161,429.466
-4.992,-5.119,1000.648,-250.894,205.993,375.442
-4.635,-8.765,1000.156,-227.451,399.087,284.884
-1.451,-10.730,999.814,-334.076,426.611,411.067
2.800,-13.340,994.570,-353.188,370.435,417.591
-1.587,-10.919,998.693,-290.230,231.225,421.209
-1.334,-4.174,1000.308,-204.834,331.046,421.324
-4.962,-9.408,999.295,-212.547,386.816,413.183
0.670,-4.900,1001.828,-237.319,351.139,450.556
-2.978,-11.448,998.545,-436.709,173.085,466.482
-1.387,-8.157,997.416,-265.516,235.063,401.292
-5.385,-10.856,998.204,-253.152,187.358,434.323
-5.526,-14.938,995.908,-228.118,296.935,403.652
-3.672,-7.593,999.514,-277.640,254.899,365.909
1.133,-9.161,996.857,-277.744,329.122,426.012
-0.012,-10.771,1002.409,-288.443,279.917,394.078
0.917,-10.054,999.869,-235.931,234.781,330.046
-3.625,-6.014,1000.194,-204.176,298.535,411.947
-3.587,-10.384,998.894,-264.676,209.859,416.778
1.755,-5.888,998.971,-158.457,145.481,427.069
-2.252,-8.817,1002.541,-210.040,228.750,401.058
-2.177,-9.031,1004.673,-336.287,302.874,342.508
-0.913,-4.439,997.096,-269.442,375.993,377.235
0.750,-9.358,1000.477,-244.709,244.049,483.129
1.473,-13.714,999.202,-239.440,258.304,432.287
0.495,-9.107,1002.171,-134.584,163.799,480.965
-0.767,-8.595,998.099,-225.165,289.112,406.927
-4.353,-9.287,999.521,-292.409,345.756,357.589
-2.416,-10.088,1001.755,-239.122,233.245,461.883
3.727,-8.901,998.694,-248.180,234.747,498.527
-2.908,-9.365,996.504,-240.497,400.348,436.660
-4.170,-6.241,1003.123,-255.028,248.432,470.683
-0.754,-10.409,998.206,-361.085,189.678,504.469
-3.398,-12.594,997.082,-254.117,229.862,463.623
-1.437,-10.519,996.953,-325.716,167.783,438.220
0.091,-6.437,999.279,-312.296,196.029,509.222
-0.772,-8.164,1001.171,-279.172,358.851,435.395
0.065,-9.741,995.871,-175.452,230.735,419.392
-6.086,-7.231,999.893,-121.542,269.296,476.238
-4.281,-8.825,1006.858,-243.423,285.395,436.176
-1.824,-6.504,997.317,-249.431,264.724,476.930
0.322,-10.862,992.547,-218.735,184.594,405.910
-2.592,-9.856,1003.116,-155.206,303.007,427.005
-0.391,-11.512,1003.356,-237.254,315.763,456.882
-0.093,-10.948,995.846,-292.565,204.711,568.852
-2.162,-11.956,998.652,-210.415,216.419,402.120
-0.086,-10.005,1004.141,-287.168,197.278,461.780
1.428,-8.598,1000.348,-294.754,104.861,412.467
-3.911,-6.994,994.790,-372.506,91.638,277.080
-2.789,-6.870,999.743,-296.118,198.172,426.124
-0.009,-10.800,1000.639,-225.207,261.947,405.472
-1.977,-7.567,999.956,-264.949,231.551,498.822
-0.648,-8.019,997.184,-290.311,261.910,475.837
-3.258,-7.882,1002.007,-272.929,204.877,512.397
-1.032,-8.781,1000.249,-265.798,251.441,417.376
-5.099,-7.462,998.296,-174.961,440.035,369.607
-2.794,-9.863,998.055,-333.257,206.836,491.252
0.294,-9.469,1002.823,-340.672,122.334,371.070
-0.798,-10.532,998.050,-227.567,284.501,405.721
-7.433,-9.545,995.254,-182.811,190.066,446.116
-0.545,-12.932,1003.339,-284.656,249.355,470.236
-5.573,-6.937,1000.822,-289.377,250.117,406.248
-0.846,-8.202,998.833,-185.516,196.040,431.079
-2.055,-11.725,995.808,-272.230,220.474,360.306
1.540,-10.363,1001.084,-351.580,139.803,284.599
-3.684,-8.344,999.043,-332.317,308.202,361.221
-5.437,-9.238,994.541,-290.265,313.350,429.216
-1.911,-8.953,998.247,-211.213,180.684,409.142
-0.657,-8.526,1003.506,-192.038,297.438,466.206
-3.243,-8.890,999.652,-366.275,369.382,451.302
-0.569,-3.431,995.933,-329.407,277.365,400.950
-2.677,-9.279,1001.045,-231.281,214.376,512.705
-2.882,-10.028,1000.287,-178.441,224.409,438.128
1.563,-8.606,999.086,-161.669,395.814,389.511
1.616,-11.902,997.092,-247.044,247.914,519.309
-2.619,-11.070,1001.094,-332.492,259.534,431.917
0.250,-5.718,997.423,-355.612,274.827,418.920
0.827,-8.028,996.971,-342.268,297.346,420.658
-3.687,-5.193,999.073,-287.474,241.220,418.559
-1.243,-7.997,999.449,-365.229,272.888,422.339
-0.062,-9.310,1004.891,-310.991,288.945,416.459
-3.690,-10.072,1002.963,-308.963,240.781,425.061
-3.490,-7.491,995.887,-370.711,194.355,411.987
1.476,-8.669,996.790,-326.997,177.779,485.733
-0.994,-11.606,1002.518,-245.183,291.701,416.804
-3.835,-8.890,1001.691,-327.370,194.281,428.235
-2.671,-6.799,994.912,-287.878,201.770,404.719
-3.358,-12.486,1001.466,-232.778,111.820,469.496
-0.160,-9.500,998.672,-255.218,200.640,445.331
-2.881,-9.013,1001.342,-229.564,208.216,413.458
-5.872,-12.627,994.771,-264.541,147.263,413.151
-3.367,-7.359,1003.076,-284.934,143.327,441.283
-2.045,-10.174,1003.582,-278.998,226.494,454.105
0.044,-10.912,998.729,-277.903,189.209,349.459
0.666,-10.753,1000.882,-285.397,299.248,459.191
0.561,-10.523,1000.687,-271.700,319.759,293.466
4.401,-7.154,1000.042,-345.861,257.001,339.337
-0.403,-10.516,994.042,-280.600,368.544,427.190
-3.583,-9.139,998.536,-270.250,234.746,481.908
-1.073,-5.255,1004.189,-208.592,232.133,425.714
-0.266,-9.675,996.638,-324.956,178.421,488.568
0.131,-7.836,994.351,-157.214,283.793,411.408
0.160,-12.483,998.778,-203.581,305.866,605.908
-2.375,-6.175,1002.634,-206.089,397.174,312.546
0.212,-10.306,1000.350,-281.549,285.934,409.446
-1.437,-10.744,1000.682,-92.842,347.122,373.267
-1.245,-10.559,1001.824,-197.629,315.666,456.314
-4.801,-6.184,995.396,23.828,608.986,257.048
-0.742,-10.630,994.939,10.178,590.848,498.033
-3.105,-10.043,1002.477,67.518,518.992,261.806
-1.161,-9.307,1003.773,-0.437,387.630,528.600
-1.419,-5.124,995.590,50.595,504.491,192.015
-0.824,-11.622,999.381,-303.787,101.071,468.183
-4.314,-6.622,998.486,-101.950,403.847,282.503
-1.277,-13.109,1004.620,-468.323,50.036,551.214
-0.146,-5.731,988.650,148.109,727.519,129.443
1.228,-11.729,1003.341,31.685,121.898,603.867
-4.995,-3.779,1004.775,-800.478,57.603,55.631
-0.638,-8.979,1002.061,-2074.839,-1170.787,801.684
-28.728,5.739,1000.109,-1856.702,-611.052,-92.952
-3.327,-48.974,996.231,-10639.130,-7990.293,1314.664
6.940,1.213,1005.164,-16591.122,-11708.094,621.712
-3.125,-62.410,994.991,-17272.028,-11980.878,1675.331
12.538,-67.576,1003.393,-9218.742,-3007.099,-1693.044
46.835,161.004,1105.551,-11053.525,1867.597,3440.777
-49.403,-35.281,967.496,-19483.340,1809.503,21061.869
-23.902,-163.344,1039.629,-21666.633,1255.266,28412.820
-63.711,-75.156,941.020,-14771.743,1028.830,24910.574
-16.045,-69.018,1003.244,1861.290,-1227.815,16842.669
38.612,-45.817,950.497,4473.781,-1627.713,12010.204
-99.898,-121.511,1057.363,7230.113,-1901.136,15551.648
-30.622,-158.726,1067.280,3786.519,-2513.836,22679.543
188.425,-0.424,908.149,2480.828,-1364.051,22061.608
48.731,-57.081,1034.010,6284.034,-1486.861,10572.959
-3.775,-3.040,984.044,3241.519,-115.377,3106.906
19.531,-41.420,1015.152,5365.500,-904.089,4876.074
3.259,-21.746,984.141,5766.679,-1173.859,4961.140
38.372,-68.110,995.890,4638.295,-1499.549,6473.138
7.334,-22.865,1001.466,-10.081,256.928,1431.210
8.356,-45.179,1006.225,-2017.376,234.881,3318.297
13.301,-32.014,985.960,-1216.963,417.242,801.125
14.167,-42.990,1000.503,-701.537,139.569,1390.716
17.887,-31.007,988.904,4585.793,-614.441,3702.857
20.668,-20.412,1019.632,3584.219,-482.732,1686.253
12.345,-33.446,982.616,-689.592,410.608,57.624
10.921,-31.285,1003.982,-228.919,230.010,705.949
18.121,-36.692,1004.083,-6.105,311.134,176.915
7.702,-34.402,1003.541,-155.073,128.702,645.281
-1.962,-7.765,983.564,1066.572,65.610,-298.219
9.879,64.131,960.312,1272.442,305.564,10939.867
-49.434,-50.891,1001.621,144.564,-436.675,12289.876
-27.267,-105.124,1003.485,1065.449,-779.004,9282.279
93.322,-75.667,1009.925,24.849,-380.783,5184.336
-34.837,-131.532,991.609,-1510.492,485.748,-127.619
52.792,-0.683,1003.564,-1945.412,1027.049,-2398.060
3.984,-17.919,995.328,-2493.371,966.895,1299.670
9.013,-7.409,997.250,-3220.179,213.945,7077.980
19.464,-22.473,1002.330,-1798.863,17.220,8330.746
37.861,-18.508,1015.758,-479.156,-278.084,6651.891
31.197,-18.906,1003.481,-469.480,-243.126,5237.203
1.549,-31.820,997.359,-2033.026,15.287,4598.837
27.818,-36.557,1014.331,-2774.517,752.282,3864.514
9.948,-34.453,976.185,-1417.483,860.249,4114.509
11.062,-32.383,1005.865,1232.135,1726.614,2659.905
17.552,-33.823,1000.591,1769.486,1826.404,1942.598
6.094,-25.651,1007.800,2136.477,2765.994,1315.133
11.000,-35.209,989.245,1558.408,2687.527,2116.690
-19.026,-36.412,998.127,-924.336,4507.462,3113.757
9.334,-32.047,994.747,-1063.234,3124.532,2988.936
3.939,-32.597,1005.015,526.388,3289.200,858.711
29.477,-45.082,993.754,302.822,3679.652,576.438
-53.215,-33.691,1002.919,-200.728,8413.705,-4032.129
29.772,-64.457,987.276,712.782,10465.079,-1269.012
41.991,-21.393,1020.633,7184.833,25733.201,-4861.319
-8.814,-59.903,1068.436,16027.716,14385.941,-20395.525
-118.307,0.109,1001.551,25372.149,1018.721,-19835.569
-68.053,41.070,1138.214,17865.304,-13103.248,-6222.340
-78.021,77.384,1592.619,48816.247,-42161.220,-2233.344
57.620,44.590,1587.182,148911.457,-45757.444,844.285
29.554,-100.422,1501.620,221480.255,-1581.437,-7131.989
279.474,-57.203,1267.150,267543.523,82603.327,-44060.850
172.286,184.318,1621.386,305970.411,117389.882,-88059.730
-625.372,-49.172,1916.773,376827.257,52331.661,-79055.961
291.522,31.733,1387.785,430251.425,48037.719,-23004.074
270.423,154.809,1520.768,463628.400,57673.164,-2728.750
25.311,42.974,651.265,506222.605,51235.912,-29919.265
-68.731,207.050,-353.557,438481.719,111074.632,-76546.428
-444.151,543.394,129.585,349200.988,95874.832,-87316.741
-311.358,508.745,-487.703,318890.939,16227.098,-40702.502
-184.161,714.876,-479.445,256048.699,5481.480,25638.739
-273.104,760.079,-199.056,231843.400,5349.411,67350.562
-130.381,727.793,-529.912,171650.253,10012.877,50075.218
-143.304,777.075,-461.845,91964.831,585.829,12996.212
-138.149,743.793,-417.404,36429.418,16046.918,-15124.497
-264.911,848.533,-203.261,26723.000,22267.531,-18079.736
-226.703,820.484,-409.014,20440.764,9311.659,-7243.533
-313.928,867.537,-220.559,3311.025,10322.315,-3715.523
-312.926,920.261,-124.275,-5413.739,17498.083,1376.790
-267.905,1003.648,-98.697,-2455.077,19551.603,9732.792
-214.459,983.471,-161.827,-9161.043,12467.621,16467.725
-179.143,1054.342,-18.750,-9271.325,11483.645,18816.784
-101.059,1034.149,-121.974,-7083.587,6406.318,20810.431
-121.825,1039.851,-60.071,-8289.172,1574.414,18368.829
-117.058,1023.392,-54.161,-9824.082,-5661.858,16861.320
-102.740,1062.690,-119.456,-7642.748,-5071.761,7936.476
-111.716,1020.550,-191.715,-17850.922,-3772.105,-3905.893
-168.909,1002.828,-174.889,-42986.654,-4054.082,-12853.131
-213.978,1006.406,-106.153,-75369.336,-8022.057,-21921.993
-238.483,968.192,-118.267,-88825.710,-21117.441,-22144.948
-214.531,966.126,-204.176,-100524.506,-57282.959,-7919.314
-272.639,847.215,-19.984,-129331.208,-42322.987,-5765.129
-319.816,970.021,379.416,-137417.832,16955.786,-13182.249
-309.460,1112.391,480.338,-99010.947,5571.141,13147.331
-227.402,980.020,77.417,-85736.681,-9571.410,36183.205
-248.327,888.804,49.183,-102372.602,-1563.029,27740.898
-158.206,902.163,210.565,-112678.150,6991.447,13546.168
-162.950,910.611,406.626,-116322.242,26318.728,4938.300
-178.619,908.142,335.705,-104338.718,34305.077,14200.608
-110.801,817.649,61.724,-115878.123,23499.735,21780.485
-98.185,847.620,280.951,-125702.441,-33098.426,21147.356
-179.774,853.347,656.952,-108217.798,-92963.669,34091.222
-201.530,756.179,565.089,-96271.064,-88510.318,54002.137
10.155,741.143,343.549,-102587.701,-45702.078,54987.474
100.256,746.696,306.008,-133601.192,-23722.727,34976.668
93.020,701.722,572.992,-154225.109,-13242.350,10987.057
-29.968,851.205,1029.643,-126063.991,-20420.795,13064.902
9.172,775.295,776.451,-81699.668,-47669.229,36324.735
81.732,577.799,384.509,-93024.955,-12318.229,17972.821
-32.729,479.189,399.580,-147605.368,46313.514,-23433.186
-43.514,518.861,751.071,-179409.698,76052.877,-48844.156
-34.381,787.265,1224.179,-135302.710,37925.759,-27962.332
-45.696,632.683,926.596,-76642.976,-16478.170,16053.107
-64.198,445.734,656.668,-77469.568,-7692.220,12473.052
-116.856,375.478,696.034,-116252.580,35132.711,-15037.490
-72.313,518.539,1050.208,-125526.783,55040.396,-26622.491
-85.416,593.652,1155.070,-86456.881,25278.249,-10314.589
-131.461,457.195,972.817,-57734.555,-5617.636,10546.263
-136.666,363.265,887.150,-62028.838,11459.758,3293.947
-145.809,515.738,1156.936,-54629.241,40741.439,-11405.634
-122.556,493.324,1122.830,-22845.455,34866.520,-9544.627
-117.804,434.952,961.486,-3171.156,25675.562,-8324.615
-171.204,384.399,930.970,-1513.149,18121.559,-6366.950
-210.624,429.583,1006.749,7503.643,4601.611,-888.782
-203.948,430.227,981.669,22649.246,-4614.661,8100.412
-177.627,406.550,882.228,25940.538,3446.666,8160.534
-127.670,397.404,835.506,18987.602,12029.184,6146.022
-112.441,420.476,848.372,11311.990,17145.840,-2801.509
-179.185,413.285,899.549,9426.410,8573.103,-2228.556
-185.260,424.582,868.880,12129.393,-2176.542,3311.625
-133.055,394.021,767.317,3229.060,642.747,7643.707
-165.679,418.493,806.438,-12277.461,13172.947,3806.660
-159.203,425.020,856.555,-20729.450,15054.840,10458.555
-218.889,331.825,776.423,-35618.744,11033.616,29660.132
-221.847,207.113,533.283,-75999.644,37002.914,54736.061
-322.146,41.106,396.594,-151706.810,59472.174,47763.592
-362.599,-156.432,589.134,-248934.279,48106.493,10657.531
-147.897,-287.107,833.805,-325120.690,-8508.038,-10289.823
347.542,-418.755,718.437,-394596.818,-83356.447,-61821.725
271.751,-647.897,920.528,-468637.543,-118136.021,-76258.356
101.454,-1333.515,623.407,-508294.663,-119161.487,-52002.019
-77.331,-1107.641,1340.324,-522829.910,-16076.128,-99646.806
-466.765,-599.333,2059.606,-464245.044,27873.659,-135103.219
-446.397,110.548,2609.012,-331151.822,-3182.936,-95289.193
-309.319,-205.113,1817.766,-161935.963,-13361.966,-2184.015
-310.199,-1090.688,262.007,-84026.457,9421.797,68551.753
-123.363,-840.154,347.001,-96801.438,35679.984,62106.635
229.692,-585.983,636.420,-91676.513,48430.527,34420.934
397.831,-658.084,439.321,-91501.626,34068.725,1068.468
340.859,-725.161,514.645,-81514.543,6487.719,-40968.555
94.630,-849.845,470.442,-68644.169,-18986.632,-51280.180
-120.792,-872.196,545.681,-59615.797,-18871.661,-39919.524
-226.583,-837.722,726.186,-35836.946,-7339.663,-22545.673
-123.095,-864.754,563.857,-5310.231,2948.146,-10531.076
-100.253,-929.803,398.511,4424.409,971.641,-1597.002
-140.961,-768.262,671.580,17030.507,-139.228,-3318.335
-134.945,-747.003,714.450,49610.703,-3046.570,-1946.277
-8.890,-655.361,877.298,94393.951,943.917,-9162.971
-7.577,-701.757,984.189,149098.415,-1751.047,-12021.190
10.864,-672.110,1041.297,207790.589,-24569.688,3070.631
-23.518,-916.990,726.498,242771.795,-58880.737,38829.386
-21.063,-984.704,416.609,234061.031,-37355.012,40791.546
-92.873,-834.464,686.592,214208.289,7718.806,20517.633
71.548,-255.676,1181.786,236794.107,37090.100,940.463
25.515,-638.555,620.880,241895.899,1150.461,52550.635
-112.014,-890.573,248.865,195823.969,-23049.863,80765.807
96.097,-401.147,752.401,143621.855,4360.621,43551.819
69.619,25.849,1490.563,168798.601,5646.958,2911.552
-77.548,-150.697,1182.124,225664.823,-56489.600,38003.759
-208.998,-719.682,365.601,200495.937,-66262.272,75815.823
44.636,-252.550,713.171,132652.374,12115.148,38977.811
94.646,83.559,1298.966,117886.401,38493.101,5194.674
133.194,279.167,1352.032,177320.197,-806.989,-2652.854
-32.820,-198.460,695.792,175096.653,-24298.942,18589.895
35.480,-56.645,723.519,117677.532,20268.153,-1726.801
89.848,188.283,1033.342,96227.213,23699.297,-17798.278
123.228,389.844,1252.232,120765.513,-11151.637,-30153.499
-194.487,93.729,887.310,129082.501,-50383.824,-15363.111
-211.544,-29.272,592.817,81891.618,-21867.146,1675.967
52.337,292.795,970.509,43232.415,21466.555,-10529.924
-71.101,403.864,1195.122,59123.123,4712.298,-13328.922
-87.688,284.488,853.361,74519.914,-4314.660,-8581.607
-44.713,254.607,807.304,54217.622,18962.029,-11714.094
-48.486,314.464,858.402,33811.401,22770.249,-6781.627
8.716,373.787,903.328,23344.703,14565.473,-40.574
-24.041,401.376,948.144,19457.189,6797.597,813.569
-65.293,304.012,820.180,9425.855,4921.139,2013.409
-117.229,294.150,836.520,-9694.636,6578.300,-2351.375
-86.945,365.600,963.266,-21315.784,-1626.311,-1525.913
-58.444,435.191,1076.851,-13862.651,-15313.642,1872.236
-85.722,366.986,974.393,-2025.203,-12290.442,2685.497
-65.596,353.134,934.883,-7590.918,6242.524,-3104.367
-101.683,294.611,871.339,-17070.722,9470.129,-3693.266
-53.303,366.450,996.516,-23034.903,4826.138,-60.378
-42.772,384.545,1026.299,-13548.174,-8235.502,4741.696
-57.958,318.344,954.529,-10390.385,-3356.010,4265.159
-33.189,295.820,910.550,-17675.394,10607.007,-86.831
-50.089,328.143,995.163,-19415.656,9757.180,-936.736
-2.939,357.780,1017.259,-10574.508,-1619.941,879.585
-14.327,331.870,976.040,-4777.167,-7010.809,-292.209
-57.905,279.178,944.759,-4272.534,-5342.102,-2263.483
-41.274,270.377,886.539,-7003.811,-2181.315,-3562.962
-75.925,270.089,926.959,-14316.129,2248.692,-6802.577
-111.976,297.594,1004.916,-12513.420,-7192.953,-789.672
-55.836,330.239,1005.540,-3296.831,-20401.530,7720.615
-62.415,259.968,908.420,-1233.636,-27920.461,12046.465
-24.774,269.988,934.536,-4469.090,-23329.075,11208.825
-17.586,289.439,1018.647,-2021.620,-20090.893,9329.291
-14.955,325.374,1111.549,9805.124,-17555.226,8413.730
8.717,356.366,1147.204,29758.166,-19520.557,11173.656
143.423,481.382,1347.497,65633.550,-3345.464,3423.808
-39.452,510.444,1498.069,129908.840,-7388.990,7139.752
-19.679,172.105,751.859,156933.090,14442.931,5461.620
81.842,264.481,514.256,114729.836,81021.435,-26565.879
-31.663,385.915,673.558,70120.007,84510.191,-34652.627
-87.269,446.143,740.574,55455.845,29208.950,-10085.050
-71.797,469.004,683.253,45106.441,-15116.048,10666.781
-82.765,438.990,625.476,19504.417,-17062.331,11024.963
-73.685,555.153,892.617,4977.109,2073.257,-162.349
-81.028,572.459,941.520,15237.735,2117.518,-2572.779
-94.154,526.136,832.654,25268.457,4157.241,-1921.464
-30.288,555.224,868.403,24493.602,10468.571,-4903.644
-55.333,596.882,1007.411,39445.888,7619.075,-3209.281
-15.174,664.652,1149.364,65385.828,16838.655,-10124.522
62.721,736.155,1333.381,118322.635,21978.442,-20197.529
90.167,762.595,1449.472,187728.656,9142.677,-37185.925
88.247,670.564,1499.038,279553.809,-2465.948,-53985.909
-77.610,597.699,1874.098,389286.651,10498.335,-73333.010
188.427,322.116,1453.919,492951.657,41026.777,-83689.395
274.665,115.045,768.414,547091.826,93651.877,-126034.102
-120.549,53.656,-417.601,545027.798,57611.099,-131538.581
-564.689,36.443,-1654.643,422739.360,-20251.390,-81720.150
-715.896,564.282,-446.643,247302.675,-15589.486,-37472.320
-385.106,423.711,-651.813,185784.801,-29052.658,29363.001
-109.807,547.632,-750.483,119800.817,-19976.710,27637.898
-207.672,746.515,-451.264,78051.481,-6049.485,-6083.611
-433.854,804.612,-446.670,56942.225,314.277,-29270.368
-564.057,851.652,-452.559,36930.551,10528.243,-23104.962
-530.581,876.166,-465.316,24186.108,13101.515,73.374
-379.965,964.797,-416.356,23131.543,6084.023,20442.948
-267.134,986.394,-460.887,17989.053,8462.139,14358.545
-244.202,994.830,-471.860,6631.494,15731.479,-511.544
-298.829,932.448,-486.810,-5587.773,20839.205,-8925.566
-367.370,917.133,-365.118,-15635.649,29248.686,-13363.899
-329.408,904.878,-386.934,-18076.157,27628.268,-9320.161
-286.117,951.857,-331.910,-17589.079,18712.442,-5018.651
-238.165,1012.916,-234.015,-10164.110,13825.157,-4799.466
-194.334,977.138,-409.466,-769.446,2154.624,-3168.657
-257.521,865.784,-396.339,-16370.283,-7455.253,-6903.427
-293.867,912.910,-226.601,-14661.652,-2490.296,-8973.736
-308.336,857.010,-321.068,-9484.274,-8574.924,-816.960
-291.100,893.242,-285.706,-5675.973,-22194.984,8346.820
-272.772,883.429,-406.231,-15428.253,-27159.055,8728.559
-291.173,736.981,-501.593,-31442.147,-38170.442,11428.172
-325.163,790.136,-457.205,-54749.357,-30669.014,6998.180
-317.541,815.635,-441.011,-88414.087,-24571.793,5051.471
-354.024,866.992,-432.590,-125996.559,-31909.681,15290.095
-361.227,733.281,-475.718,-148148.101,-75885.769,39055.143
-329.106,809.549,-5.352,-170379.187,-65934.654,42424.118
-377.183,1148.625,684.226,-140524.626,-40569.147,43099.708
-243.613,1077.373,103.624,-79992.969,-39878.485,68599.034
-296.754,843.795,-466.338,-98932.197,-53644.466,87046.082
-239.540,679.764,-429.007,-160220.889,-16772.321,57759.064
-208.590,1012.823,637.774,-176845.122,23719.282,21681.516
-200.535,1050.396,724.802,-104733.511,19422.429,39172.007
-88.235,1027.519,234.718,-65195.840,15866.182,55050.317
-121.943,829.526,-198.642,-87253.664,-2976.250,57788.112
-115.662,849.563,125.000,-127304.309,7959.961,37950.135
-122.045,955.263,610.424,-124133.974,14928.810,33436.912
-101.290,907.951,434.383,-100733.899,7662.378,46364.043
-3.160,805.405,34.600,-116900.918,13215.267,47990.616
-6.380,644.416,-99.323,-177528.146,1588.697,37083.114
-89.930,727.441,661.817,-204234.071,-12148.951,27854.075
-99.877,787.672,942.472,-165974.860,-17945.825,44168.916
20.959,809.617,766.421,-121042.984,-18727.987,66033.987
210.438,666.001,309.863,-132706.762,-5333.969,50478.656
261.068,527.524,212.595,-190501.290,3286.766,1000.074
-27.738,518.657,893.246,-231904.187,-7977.353,-29957.029
-227.464,666.088,1374.253,-176409.393,-23719.524,-1672.936
27.558,579.707,985.456,-112218.578,-35631.922,40649.476
106.096,512.100,790.822,-108971.009,6127.742,26595.955
95.180,530.591,885.967,-118651.485,27922.378,-6036.265
0.091,599.358,1250.085,-95046.071,12392.607,-15579.611
-30.954,675.031,1361.787,-35952.088,-13179.811,2431.071
-70.140,509.889,1112.283,3556.819,-10035.313,12450.337
2.054,466.421,903.928,8853.205,32118.834,-645.728
-35.214,499.757,966.354,3078.347,46215.591,-14240.715
-70.270,484.600,900.122,1830.620,30486.094,-9414.888
-106.447,498.793,911.804,10284.828,10548.378,2192.710
-41.080,503.272,892.146,18138.072,6528.674,4795.377
-20.245,464.053,794.317,12797.077,8339.449,-1946.693
-87.468,464.229,828.237,8293.057,9323.578,-6200.399
-71.889,490.202,849.711,6378.914,4700.785,-2032.438
-29.149,515.865,835.785,8554.411,3608.806,1967.591
-46.826,495.776,846.801,5760.750,8843.153,358.823
-31.033,510.180,836.131,3618.796,10489.461,-1336.889
-47.132,490.292,809.537,-1025.891,8098.032,-3524.751
-41.822,517.501,844.664,-3537.886,4917.493,-3408.930
-47.659,512.560,849.769,-2599.661,305.583,-2696.458
-69.389,516.043,827.620,-4962.980,-2565.799,-2020.294
-63.524,506.717,809.343,-8718.586,-2449.224,-1239.004
-78.055,519.462,859.041,-14175.809,-3769.675,-607.049
-92.903,470.416,795.833,-25344.958,-1085.259,-809.107
-49.100,390.532,685.115,-54487.567,5806.044,-3756.030
-80.638,157.723,356.088,-128138.813,30507.566,-11810.113
-147.937,-180.657,226.521,-253604.988,73097.133,-25327.864
-257.652,-517.166,336.411,-380046.756,81967.249,-16583.387
9.059,-1131.892,314.476,-501405.220,782.060,51769.194
464.295,-1645.510,513.911,-605167.735,-36170.469,5283.955
311.141,-1272.473,1606.081,-654515.819,-12248.416,-140824.057
-97.874,-824.495,2221.414,-564023.930,-66884.515,-173377.435
-598.190,288.110,3297.106,-376625.637,-81460.036,-102304.927
-843.732,84.010,2658.370,-161588.701,-31993.616,24547.948
-485.416,-1255.925,196.599,-45514.234,-5642.792,98009.614
51.593,-906.483,260.657,-72808.712,26764.650,82085.772
545.814,-454.281,1109.645,-90153.389,48522.546,19340.014
655.473,-352.164,773.425,-10909.224,12747.351,-54571.521
299.040,-931.030,48.812,-33431.645,-24409.946,-85848.523
-193.268,-752.955,642.859,-60222.475,-34108.916,-68889.221
-274.624,-709.964,921.193,-32212.170,-5979.698,-36305.220
-183.196,-822.280,561.010,-10735.592,22254.601,-11375.290
-8.984,-861.307,500.429,-3789.345,16406.064,4305.449
51.049,-640.617,786.612,7087.950,5163.034,2034.295
-23.805,-641.094,849.207,45329.783,1845.383,-9474.651
-115.878,-498.733,1213.861,103103.608,17106.217,-15213.911
145.514,-430.784,1379.146,213573.407,50051.734,-51439.427
252.625,-319.978,1352.612,284477.708,54459.168,-45668.905
1.648,-800.435,905.689,318936.271,-2812.519,20159.849
-59.715,-616.559,844.771,335299.507,8830.947,21795.807
-343.301,-757.920,845.416,321565.439,15821.392,42624.451
-207.263,-497.883,859.681,319941.385,29608.186,60200.000
-109.666,-626.221,700.512,291418.707,46584.587,78638.053
3.423,-537.412,521.244,245605.249,39824.543,91705.199
168.960,-243.378,647.074,187825.923,40114.323,49026.684
185.574,113.841,898.648,154911.472,15111.976,20812.803
-62.045,45.828,1065.530,148163.608,-30969.694,31717.494
-17.854,188.440,834.479,130497.875,-52080.132,50606.459
-26.131,-276.466,921.465,96756.228,-26561.524,37109.097
-29.502,-361.428,1115.899,77261.289,3888.513,4306.555
-10.099,604.407,1203.069,97460.904,4831.923,-13770.069
-66.910,134.629,864.709,96906.841,4733.276,-6379.290
29.288,392.768,879.952,81098.078,22913.449,-8304.073
-4.590,273.659,855.342,73961.725,6165.055,-7486.809
58.262,475.028,882.546,74997.327,-12942.463,-14475.098
-101.485,362.720,828.994,79805.931,-26046.129,-24150.815
-156.691,344.814,690.058,60566.397,-15273.137,-16753.582
-79.696,360.715,732.233,38779.404,5541.391,-10120.430
7.537,537.517,897.927,28930.119,6397.238,-8691.251
-14.170,492.238,900.993,41663.226,-17772.530,-2603.145
-10.966,402.032,668.177,36811.652,-31316.771,-320.564
-52.460,407.309,723.264,13220.061,-19926.710,-2567.705
-41.295,446.658,742.775,-5566.310,-4249.250,796.916
61.460,539.090,888.379,-12831.352,6737.904,-7862.686
-35.801,578.242,1015.297,-3070.183,-1249.128,-11819.096
52.857,633.860,878.325,4007.063,-10659.727,-10160.184
-145.526,421.631,803.246,-13257.040,1474.312,-10888.719
-91.695,425.701,820.192,-34371.006,13631.829,-8118.711
-15.795,565.127,996.773,-32661.680,8989.891,-5720.797
-66.738,513.242,1027.304,-18431.925,-7011.891,-1756.196
-36.301,471.347,907.493,-12431.670,-3718.970,-4611.800
-54.103,426.012,872.454,-23583.736,2255.530,-8790.452
-53.056,437.937,855.324,-39622.752,3197.834,-9474.034
-55.082,439.606,931.914,-50059.786,-573.698,-9285.527
-99.574,431.897,946.314,-47167.143,-12830.821,-4444.599
-81.450,397.137,890.751,-48124.275,-23544.630,-386.711
-73.846,371.840,859.788,-48770.643,-27222.310,1664.228
-73.064,330.995,816.851,-51884.001,-14300.634,703.720
-26.315,333.114,882.283,-57362.119,-4542.346,1501.485
16.410,309.544,917.689,-60687.135,-12602.498,1490.381
31.309,312.705,999.881,-61456.280,-21893.330,-3533.112
32.615,305.702,966.448,-65417.161,-15487.267,-10031.299
59.556,160.449,918.694,-77988.792,-918.277,-19312.884
27.743,164.425,912.612,-65505.476,20652.919,-23304.521
-2.106,180.193,1047.557,-52773.256,35679.182,-23890.635
-83.575,185.329,1223.574,-33210.319,34258.808,-17818.529
-53.630,195.934,1141.451,-16793.681,33432.563,-11550.206
-0.036,172.292,1041.275,-21201.535,48060.811,-16228.811
-48.253,178.100,1086.492,-28947.214,42688.004,-21361.271
-96.586,122.967,1018.182,-34188.080,18769.415,-21613.599
-192.596,143.146,1141.087,-31693.287,-10609.638,-12463.412
-173.480,99.942,1006.578,-22954.358,-27954.241,3299.403
-106.295,140.850,971.976,-22556.099,-26366.411,7077.379
-60.272,80.760,950.334,-27130.324,-37853.900,6098.081
-22.954,119.822,999.742,-21123.406,-29555.584,2882.523
-33.946,164.869,1016.580,-6892.226,-5734.331,-1295.337
-10.987,84.514,982.188,-2858.841,-5721.933,-6356.502
-60.318,87.463,990.447,-3507.026,-7087.182,-8315.193
-56.744,121.013,1030.076,-4452.669,-10279.661,-6808.306
-55.611,126.295,1009.010,-3216.468,-7411.494,-6785.452
-25.611,69.715,952.552,-7784.206,-8267.792,-9510.251
-57.595,76.787,1005.225,-11512.279,-9030.976,-8063.418
46.063,73.117,954.093,-12785.113,-11872.279,-3940.367
-201.770,58.069,1010.931,-7784.747,-12033.715,-3258.913
76.277,-52.231,1014.403,-13570.733,-31220.573,-1494.243
913.294,-441.824,712.581,-37513.936,-14326.415,-2261.156
-14.548,52.000,1060.456,-37963.913,-7077.384,-5792.749
75.355,51.424,965.758,-39167.216,-9789.228,-18722.988
-30.728,39.228,970.582,-32168.857,-8523.188,-19385.364
-156.463,165.431,940.065,-10612.582,-3490.784,-6942.391
-87.882,43.701,1011.843,-5522.609,-158.418,-3309.967
-53.471,32.184,1126.532,-11032.666,-3485.025,-2278.643
-78.155,28.699,962.009,-6700.905,-1768.591,-1790.231
-8.045,81.976,1014.366,-5458.962,-737.734,-4620.522
7.009,84.635,973.386,-8247.680,-2369.433,-2000.269
25.003,26.312,1022.784,-11117.282,-3048.041,-1749.444
0.878,26.851,978.199,-8369.039,-2402.758,193.710
23.447,20.026,1004.133,-8451.969,-3327.693,2652.896
52.299,25.590,966.593,-9646.553,-297.525,3579.754
23.295,2.863,1017.375,-13208.584,884.683,4221.883
34.704,6.566,981.565,-14745.558,272.451,5165.498
14.998,-6.227,1014.746,-13857.509,-133.373,6988.756
-7.974,-12.198,982.607,-12644.869,-379.317,5099.699
8.117,-13.532,1006.617,-11638.024,43.224,2571.730
13.909,-14.736,989.001,-6900.157,112.249,1786.567
5.375,-9.654,1003.833,-3623.864,110.786,2297.334
21.072,-24.992,1007.123,-6146.827,-63.083,1671.475
-3.608,-23.650,1018.311,-16606.004,-35.255,324.178
27.913,-50.346,969.965,-19465.500,533.814,-422.214
35.825,-35.051,983.004,-12057.689,1339.572,601.401
-1.909,-29.302,996.772,-5746.835,1263.789,453.554
12.722,-37.798,1005.234,-3889.145,828.112,366.668
5.973,-32.037,991.814,-4729.786,1098.067,571.223
14.765,-50.836,1000.033,-5538.744,1112.589,250.568
9.129,-35.084,976.942,-4691.887,836.498,-18.208
8.673,-41.000,1005.279,-1297.984,251.252,430.105
5.977,-37.067,985.488,-297.174,267.529,389.714
13.523,-41.695,1021.423,-276.593,217.869,508.746
8.369,-38.234,970.311,-442.983,131.688,401.093
9.028,-44.827,1030.481,-569.224,263.510,532.914
6.101,-35.894,940.874,-36.724,222.133,421.082
9.026,-43.711,1099.855,60.279,317.520,466.559
0.679,-9.694,245.960,-123.402,111.222,99.624
